Cadmium mättad 1s, 2 average
Integration time [ms]: 1000,000
Averaging Nr. [scans]: 2
Smoothing Nr. [pixels]: 0
Data measured with spectrometer [name]: 1804349U2
Wave   ;Sample   ;Dark     ;Reference;Scope
[nm]   ;[counts] ;[counts] ;[counts] 

318,182;   99,000;  -10,500;    0,000
318,201;  103,500;  100,000;    0,000
318,220;  551,500;  378,000;    0,000
318,240;  435,500;  358,000;    0,000
318,259;  -94,500; -136,500;    0,000
318,278;  256,500;  162,500;    0,000
318,297;  433,000;  379,500;    0,000
318,317;  122,000;   43,000;    0,000
318,336;  197,500;   44,500;    0,000
318,355;  215,000;  107,500;    0,000
318,374;  483,000;  387,000;    0,000
318,393; -188,500; -315,500;    0,000
318,413;   25,500; -110,500;    0,000
318,432;   16,000;  -72,000;    0,000
318,451;   92,000;   25,500;    0,000
318,470; -248,500; -279,500;    0,000
318,489; -433,500; -441,000;    0,000
318,509;   22,500;  -75,500;    0,000
318,528;  173,500;  128,000;    0,000
318,547;  639,000;  584,500;    0,000
318,566;  228,500;  154,000;    0,000
318,585; -108,500; -184,000;    0,000
318,604;  -52,500; -166,000;    0,000
318,624; -108,500; -230,000;    0,000
318,643;  166,000;   82,000;    0,000
318,662;   88,000;   50,500;    0,000
318,681;   81,500;  -79,500;    0,000
318,700;  -28,500;  -91,500;    0,000
318,719;  125,000; -101,500;    0,000
318,739;  -63,000; -145,500;    0,000
318,758;  732,500;  576,000;    0,000
318,777;  603,500;  413,000;    0,000
318,796; -336,500; -478,000;    0,000
318,815;    0,500; -105,000;    0,000
318,834;  490,000;  330,000;    0,000
318,854;  394,500;  195,000;    0,000
318,873;  160,000;   -5,000;    0,000
318,892;  308,500;  164,000;    0,000
318,911;  117,000; -151,000;    0,000
318,930;  379,000;  183,000;    0,000
318,949;  119,500;  -29,500;    0,000
318,968;   45,000; -125,500;    0,000
318,987;  303,500;  131,500;    0,000
319,007;  -87,500; -170,000;    0,000
319,026;  354,000;  187,500;    0,000
319,045;  -36,500; -246,000;    0,000
319,064;  800,000;  658,000;    0,000
319,083;  424,000;  347,500;    0,000
319,102;  195,500;   45,500;    0,000
319,121;  -51,000; -170,500;    0,000
319,140;   79,500;  -91,000;    0,000
319,160;  889,000;  701,000;    0,000
319,179;  -61,500; -153,500;    0,000
319,198;   95,000;  -65,500;    0,000
319,217;  444,000;  230,500;    0,000
319,236; -393,500; -497,000;    0,000
319,255; -195,000; -341,000;    0,000
319,274;  143,500;   47,000;    0,000
319,293;    5,000; -110,000;    0,000
319,312;  395,000;  224,000;    0,000
319,331;  129,000;  -72,000;    0,000
319,350;  356,500;  212,000;    0,000
319,370;  178,500;   51,500;    0,000
319,389;  330,500;  272,500;    0,000
319,408;  -93,000; -243,500;    0,000
319,427;   33,500;  -92,500;    0,000
319,446;  667,500;  529,000;    0,000
319,465;  220,500;  141,500;    0,000
319,484;   52,000; -198,000;    0,000
319,503; -112,500; -293,000;    0,000
319,522;  125,500;  -70,500;    0,000
319,541;  765,500;  627,500;    0,000
319,560;   61,000; -152,500;    0,000
319,579;  326,000;  107,500;    0,000
319,598;  676,000;  498,000;    0,000
319,617;   -1,000; -165,500;    0,000
319,637;    6,500; -209,500;    0,000
319,656;  -23,500; -145,500;    0,000
319,675;  513,500;  416,500;    0,000
319,694;  511,000;  299,500;    0,000
319,713;  -56,000; -259,000;    0,000
319,732; -157,500; -297,000;    0,000
319,751;  195,000;  -29,000;    0,000
319,770;  562,000;  404,000;    0,000
319,789;  170,000;  -67,500;    0,000
319,808;   19,000; -106,500;    0,000
319,827;  259,000;  184,500;    0,000
319,846;  -36,500; -266,000;    0,000
319,865; -113,500; -470,500;    0,000
319,884;   59,000; -245,000;    0,000
319,903;  762,000;  624,500;    0,000
319,922;  146,500;  -52,000;    0,000
319,941;  -17,500; -193,000;    0,000
319,960;  239,000;   36,500;    0,000
319,979;  442,000;  287,500;    0,000
319,998;  863,000;  635,000;    0,000
320,017;  116,000;  -73,500;    0,000
320,036;   67,500; -158,000;    0,000
320,055;  535,000;  339,000;    0,000
320,074;  262,000;   95,500;    0,000
320,093;  523,000;  168,000;    0,000
320,112;  249,000;   56,000;    0,000
320,131; -235,000; -440,500;    0,000
320,150; -282,500; -570,500;    0,000
320,169;   69,500; -166,500;    0,000
320,188;  191,500;   49,000;    0,000
320,207;  531,000;  377,500;    0,000
320,226;   68,500;  -70,500;    0,000
320,245;  163,500; -184,500;    0,000
320,264; -113,000; -333,500;    0,000
320,283;  315,000;   53,000;    0,000
320,302;  791,500;  495,500;    0,000
320,321;   66,000;  -75,500;    0,000
320,340;  -35,500; -139,500;    0,000
320,359;  128,000;  -30,000;    0,000
320,378;  289,500;   41,000;    0,000
320,397;  175,000;  -87,500;    0,000
320,416;  105,000;  -82,000;    0,000
320,435;   25,500; -178,000;    0,000
320,454;  344,000;  122,500;    0,000
320,472;  -50,500; -346,000;    0,000
320,491;  334,500;   77,000;    0,000
320,510;  986,000;  668,000;    0,000
320,529;  136,500;  -89,000;    0,000
320,548;  699,500;  317,000;    0,000
320,567;  518,000;  209,500;    0,000
320,586;  361,000;   40,500;    0,000
320,605; -143,000; -392,500;    0,000
320,624;  257,000; -173,000;    0,000
320,643;  229,500; -272,000;    0,000
320,662;  827,500; -256,500;    0,000
320,681; 1944,500;  243,000;    0,000
320,700; 1900,000; -130,500;    0,000
320,719; 1480,500;  -61,000;    0,000
320,738;  690,500;   22,000;    0,000
320,756;  832,000;  404,500;    0,000
320,775;   59,000; -265,500;    0,000
320,794;  355,000;  122,500;    0,000
320,813;  433,000;  124,000;    0,000
320,832;   54,500; -216,000;    0,000
320,851;  125,500;  -89,000;    0,000
320,870;  358,500;   72,000;    0,000
320,889;  803,000;  472,000;    0,000
320,908;  165,500; -123,000;    0,000
320,927;  319,500;   37,500;    0,000
320,945;  657,500;  391,000;    0,000
320,964;  530,500;  168,000;    0,000
320,983;  445,500;  200,500;    0,000
321,002;  208,000;  -19,500;    0,000
321,021;  345,000;  121,500;    0,000
321,040;  515,500;  265,500;    0,000
321,059;   78,000; -169,500;    0,000
321,078;   91,000; -126,000;    0,000
321,097;  199,000;  -66,000;    0,000
321,115;  122,000; -164,500;    0,000
321,134;  915,500;  603,500;    0,000
321,153;   67,500; -239,000;    0,000
321,172;  115,500; -164,000;    0,000
321,191;  940,000;  614,500;    0,000
321,210;  263,000;  -83,500;    0,000
321,229;  352,500;   70,500;    0,000
321,247;  418,000;   93,500;    0,000
321,266;  462,000;   74,500;    0,000
321,285;  232,000;   12,000;    0,000
321,304;  413,000;  156,000;    0,000
321,323;  142,500; -188,000;    0,000
321,342;  408,500;   71,500;    0,000
321,361;  500,000;  231,000;    0,000
321,379;  354,500;  125,000;    0,000
321,398;  230,500;  -50,000;    0,000
321,417;  250,000;  -58,500;    0,000
321,436;  192,000;  -77,500;    0,000
321,455;  235,500; -129,000;    0,000
321,474;  266,500;   17,000;    0,000
321,492;  492,500;  179,500;    0,000
321,511; -133,000; -415,500;    0,000
321,530;  -53,500; -263,000;    0,000
321,549;  144,000; -114,500;    0,000
321,568; 1047,000;  675,000;    0,000
321,586; -136,000; -563,500;    0,000
321,605; -310,000; -566,000;    0,000
321,624;  236,000; -160,500;    0,000
321,643;  602,500;  461,500;    0,000
321,662;  535,500;  271,000;    0,000
321,680;  421,500;   17,000;    0,000
321,699;  246,000;  -59,500;    0,000
321,718;  274,500; -118,500;    0,000
321,737;  740,000;  381,500;    0,000
321,756;  314,000;  -10,500;    0,000
321,774;  100,500; -147,000;    0,000
321,793; -128,500; -315,000;    0,000
321,812;  234,500;   42,500;    0,000
321,831;  339,500;   47,500;    0,000
321,850;  728,000;  362,500;    0,000
321,868;  410,500;   11,000;    0,000
321,887;  -10,000; -326,500;    0,000
321,906;  324,000;  -12,000;    0,000
321,925;  354,000;  -10,500;    0,000
321,943;   75,500; -292,000;    0,000
321,962;   63,000; -228,000;    0,000
321,981;  496,500;  118,500;    0,000
322,000;   65,000; -356,500;    0,000
322,018;  628,500;  286,500;    0,000
322,037;  351,500;   77,500;    0,000
322,056;  444,000;  114,000;    0,000
322,075;  326,000;  -55,000;    0,000
322,093;  195,000; -108,500;    0,000
322,112;  561,000;  186,000;    0,000
322,131;  348,500; -123,500;    0,000
322,150;  656,000;  287,500;    0,000
322,168;  474,500;  105,000;    0,000
322,187;  860,500;  603,500;    0,000
322,206;   94,000; -207,500;    0,000
322,225;  544,000;  272,000;    0,000
322,243;  254,500;  -10,500;    0,000
322,262;  411,000;   77,500;    0,000
322,281;  413,500;   14,500;    0,000
322,300;  447,000;  196,000;    0,000
322,318;  316,500;   -2,500;    0,000
322,337;  493,000;   81,500;    0,000
322,356;  225,000; -261,500;    0,000
322,374;  543,500;   74,000;    0,000
322,393;  758,000;  394,000;    0,000
322,412;  949,000;  654,500;    0,000
322,431;  121,000; -201,500;    0,000
322,449;  199,500;  -71,000;    0,000
322,468;  696,500;  332,500;    0,000
322,487;  275,000;   92,500;    0,000
322,505;  367,000;   14,000;    0,000
322,524;  262,500;  -78,000;    0,000
322,543;  692,000;  222,500;    0,000
322,561;  950,500;  642,000;    0,000
322,580;  303,000;   -5,000;    0,000
322,599;  420,500;   68,000;    0,000
322,618;  786,500;  310,000;    0,000
322,636;  681,000;  211,000;    0,000
322,655;  507,500;   -1,000;    0,000
322,674;  333,500; -122,000;    0,000
322,692;  787,000;  381,500;    0,000
322,711;  842,000;  451,500;    0,000
322,730;  271,000; -201,000;    0,000
322,748;  225,000; -132,000;    0,000
322,767;  938,500;  498,500;    0,000
322,786; 1269,500;  916,500;    0,000
322,804;  748,500;  264,500;    0,000
322,823;  225,500; -163,000;    0,000
322,842;  857,000;  395,500;    0,000
322,860; 1112,000;  649,000;    0,000
322,879;  194,000; -312,000;    0,000
322,898;  215,500; -115,000;    0,000
322,916;  922,000;  533,000;    0,000
322,935;  146,500; -279,500;    0,000
322,953;  220,500; -272,000;    0,000
322,972;  456,000;   74,000;    0,000
322,991;  827,000;  459,000;    0,000
323,009;  784,000;  367,500;    0,000
323,028;  231,500; -186,000;    0,000
323,047;  326,500; -116,000;    0,000
323,065;  458,500;   89,000;    0,000
323,084;  597,500;  106,000;    0,000
323,103;  535,500;  -10,500;    0,000
323,121;  515,000;  -58,500;    0,000
323,140;  245,000; -299,000;    0,000
323,158;  866,500;  346,500;    0,000
323,177; 1024,000;  377,000;    0,000
323,196;  547,000;  -71,500;    0,000
323,214;  398,000; -280,500;    0,000
323,233;  585,500; -111,500;    0,000
323,251;  294,000; -415,000;    0,000
323,270;  600,000;  -13,500;    0,000
323,289; 1103,000;  647,000;    0,000
323,307;  521,000;   15,500;    0,000
323,326;  412,500; -280,000;    0,000
323,344;  737,000;   22,500;    0,000
323,363;  904,500;  255,000;    0,000
323,382; 1086,500;  395,000;    0,000
323,400;  297,000; -307,500;    0,000
323,419;  502,000; -186,500;    0,000
323,437;  560,000;  -70,000;    0,000
323,456;  621,000; -167,000;    0,000
323,474;  925,000;   88,500;    0,000
323,493; 3538,500; 2898,000;    0,000
323,512; 1154,500;  307,500;    0,000
323,530;  895,000;  136,500;    0,000
323,549;  290,000; -299,000;    0,000
323,567;  565,500; -117,000;    0,000
323,586;  639,500;  -55,500;    0,000
323,604;  841,500;   85,500;    0,000
323,623;  719,000;  -20,000;    0,000
323,642;  583,000;  -94,500;    0,000
323,660;  301,500; -494,500;    0,000
323,679;  704,500; -179,000;    0,000
323,697;  625,000; -139,500;    0,000
323,716;  293,500; -329,500;    0,000
323,734; 1186,000;  521,500;    0,000
323,753; 1230,500;  402,500;    0,000
323,771;  897,000;  -66,500;    0,000
323,790;  692,500; -127,000;    0,000
323,808;  813,500;  -93,000;    0,000
323,827;  351,000; -442,500;    0,000
323,846;  877,000;   -1,000;    0,000
323,864;  621,500; -267,500;    0,000
323,883; 1328,500;  365,000;    0,000
323,901;  969,000;   66,000;    0,000
323,920; 1080,000;  147,500;    0,000
323,938;  817,500; -177,000;    0,000
323,957;  576,000; -441,000;    0,000
323,975; 1563,500;  652,500;    0,000
323,994;  612,000; -328,000;    0,000
324,012;  972,000; -113,500;    0,000
324,031;  751,000; -189,000;    0,000
324,049;  747,000; -227,000;    0,000
324,068;  939,500; -216,000;    0,000
324,086; 1029,000;   49,000;    0,000
324,105; 1260,500;  312,000;    0,000
324,123; 1118,500;  215,000;    0,000
324,142; 1037,000;   18,500;    0,000
324,160;  665,000; -336,000;    0,000
324,179; 1295,000;  230,000;    0,000
324,197; 1511,000;  407,500;    0,000
324,216; 1044,500; -127,500;    0,000
324,234; 1402,500;  126,000;    0,000
324,253;  863,000; -310,000;    0,000
324,271;  798,500; -347,500;    0,000
324,290; 1156,000;  -79,500;    0,000
324,308; 1161,500; -153,000;    0,000
324,326; 1825,000;  397,000;    0,000
324,345; 1049,500; -264,000;    0,000
324,363; 1225,500; -127,000;    0,000
324,382; 1307,000; -270,000;    0,000
324,400; 1769,000;  197,000;    0,000
324,419; 1472,500;  -63,500;    0,000
324,437; 1429,000;  -27,500;    0,000
324,456; 1326,500; -239,000;    0,000
324,474; 1232,000; -373,500;    0,000
324,493; 1490,500; -368,000;    0,000
324,511; 1987,000;  191,000;    0,000
324,529; 1695,500;   -3,000;    0,000
324,548; 1786,500;  -39,500;    0,000
324,566; 2392,000;  468,000;    0,000
324,585; 2445,000;  353,000;    0,000
324,603; 1731,500; -398,000;    0,000
324,622; 1816,000; -417,500;    0,000
324,640; 1641,000; -682,000;    0,000
324,658; 1531,500; -640,500;    0,000
324,677; 2076,500;   93,000;    0,000
324,695; 2351,000;  360,500;    0,000
324,714; 2049,000;   65,000;    0,000
324,732; 2257,000;  149,500;    0,000
324,751; 1574,000; -486,500;    0,000
324,769; 2899,500;  686,000;    0,000
324,787; 2501,500;   29,000;    0,000
324,806; 2846,000;  161,000;    0,000
324,824; 2999,500;   40,500;    0,000
324,843; 3202,500;   61,500;    0,000
324,861; 3254,000;  260,000;    0,000
324,879; 3047,000;  -17,000;    0,000
324,898; 3127,000; -145,500;    0,000
324,916; 3521,000;   64,000;    0,000
324,935; 3722,000; -118,500;    0,000
324,953; 3351,500; -355,500;    0,000
324,971; 3417,500;  -71,000;    0,000
324,990; 3166,000; -272,000;    0,000
325,008; 3751,500;  125,500;    0,000
325,026; 4380,500;  207,500;    0,000
325,045; 4837,500; -141,000;    0,000
325,063; 5767,500;   60,500;    0,000
325,082; 6165,000; -167,500;    0,000
325,100; 8131,500; -110,500;    0,000
325,118;13506,000; -100,500;    0,000
325,137;24555,000;  235,500;    0,000
325,155;36488,500;   28,000;    0,000
325,173;50463,000;   43,000;    0,000
325,192;60361,000; -126,500;    0,000
325,210;63211,000; -251,500;    0,000
325,228;63146,500;  538,500;    0,000
325,247;63229,500;  -10,500;    0,000
325,265;63146,500;  261,000;    0,000
325,284;63229,500;  326,500;    0,000
325,302;63146,500;  348,000;    0,000
325,320;63229,500;   44,000;    0,000
325,339;63146,500; -156,500;    0,000
325,357;63229,500;  284,000;    0,000
325,375;56482,000;  321,000;    0,000
325,394; 9973,500;   -7,500;    0,000
325,412; 6728,500;   26,000;    0,000
325,430; 5840,500; -103,500;    0,000
325,449; 5990,000;  375,000;    0,000
325,467; 5577,500; -253,000;    0,000
325,485; 5708,000; -205,000;    0,000
325,503; 6135,500;  394,500;    0,000
325,522; 5678,000;   37,000;    0,000
325,540; 5718,500;  166,000;    0,000
325,558; 5745,500;   64,500;    0,000
325,577; 5588,500;   47,500;    0,000
325,595; 5554,500; -282,000;    0,000
325,613; 6900,500;  -42,500;    0,000
325,632; 8578,000;  -85,500;    0,000
325,650; 9504,000;  362,000;    0,000
325,668; 9509,500;  192,500;    0,000
325,686; 9542,000; -129,000;    0,000
325,705; 8594,000; -279,500;    0,000
325,723;10542,500;   11,000;    0,000
325,741;14221,000;  745,000;    0,000
325,760;18921,500; -436,000;    0,000
325,778;28816,000;   45,000;    0,000
325,796;36246,500;  415,000;    0,000
325,814;38065,000;  224,000;    0,000
325,833;35294,000;  -43,500;    0,000
325,851;43761,000;  -61,500;    0,000
325,869;63229,500;  331,000;    0,000
325,888;63146,500;  781,500;    0,000
325,906;63229,500;    6,500;    0,000
325,924;63146,500; -258,000;    0,000
325,942;63229,500;  -55,000;    0,000
325,961;63146,500; -145,000;    0,000
325,979;63229,500; -119,500;    0,000
325,997;63146,500; -132,000;    0,000
326,015;63229,500;  111,000;    0,000
326,034;63146,500; -257,000;    0,000
326,052;63229,500; -470,000;    0,000
326,070;63146,500; -103,000;    0,000
326,088;63229,500; -343,500;    0,000
326,107;63146,500;  706,500;    0,000
326,125;63229,500;   90,500;    0,000
326,143;63146,500;   64,000;    0,000
326,161;63229,500;  241,500;    0,000
326,179;63146,500; -362,000;    0,000
326,198;63229,500; -356,000;    0,000
326,216;63146,500;  102,000;    0,000
326,234;63229,500;  216,500;    0,000
326,252;63146,500; -404,500;    0,000
326,271;63229,500;    1,000;    0,000
326,289;63146,500;  -28,000;    0,000
326,307;63229,500;  313,000;    0,000
326,325;63146,500;  147,000;    0,000
326,343;63229,500; -258,500;    0,000
326,362;63146,500;  232,500;    0,000
326,380;63229,500;   58,500;    0,000
326,398;63146,500; -115,000;    0,000
326,416;63229,500;  -62,000;    0,000
326,434;63146,500; -130,500;    0,000
326,453;63229,500;  690,000;    0,000
326,471;63146,500; -120,000;    0,000
326,489;63229,500;  -66,500;    0,000
326,507;63146,500; -143,500;    0,000
326,525;63229,500;  355,500;    0,000
326,544;63146,500; -102,500;    0,000
326,562;63229,500; -120,000;    0,000
326,580;63146,500;   24,500;    0,000
326,598;63229,500;  388,000;    0,000
326,616;63146,500; -266,500;    0,000
326,634;63229,500;  -39,500;    0,000
326,653;63146,500; -174,500;    0,000
326,671;63229,500;  269,000;    0,000
326,689;63146,500;  -30,500;    0,000
326,707;63229,500; -396,500;    0,000
326,725;63146,500;  -94,000;    0,000
326,743;63229,500; -545,500;    0,000
326,762;63146,500;   14,500;    0,000
326,780;63229,500; -145,500;    0,000
326,798;63146,500; -117,500;    0,000
326,816;63229,500;  119,500;    0,000
326,834;63146,500; -345,000;    0,000
326,852;63229,500;   95,000;    0,000
326,870;63146,500;  -98,000;    0,000
326,889;63229,500;  -95,000;    0,000
326,907;63146,500;  -20,500;    0,000
326,925;63229,500;  -56,500;    0,000
326,943;63146,500; -471,000;    0,000
326,961;63229,500;  181,500;    0,000
326,979;63146,500;  -89,000;    0,000
326,997;63229,500; -125,500;    0,000
327,015;63146,500;  146,500;    0,000
327,034;63229,500; -258,000;    0,000
327,052;63146,500;  396,500;    0,000
327,070;63229,500;   32,500;    0,000
327,088;63146,500; -228,000;    0,000
327,106;63229,500;    3,000;    0,000
327,124;63146,500; -203,000;    0,000
327,142;63229,500;    2,000;    0,000
327,160;63146,500;  -59,000;    0,000
327,178;63229,500;  211,500;    0,000
327,196;63146,500;  351,000;    0,000
327,215;63229,500; -123,000;    0,000
327,233;63146,500; -158,500;    0,000
327,251;63229,500; -253,500;    0,000
327,269;63146,500;   60,500;    0,000
327,287;63229,500;  114,000;    0,000
327,305;63146,500; -478,500;    0,000
327,323;63229,500; -139,500;    0,000
327,341;63146,500;   70,000;    0,000
327,359;63229,500;   42,000;    0,000
327,377;63146,500; -131,500;    0,000
327,395;63229,500;   74,500;    0,000
327,413;63146,500;  336,000;    0,000
327,431;63229,500; -135,000;    0,000
327,450;63146,500;   -3,000;    0,000
327,468;63229,500; -341,000;    0,000
327,486;63146,500;  160,000;    0,000
327,504;63229,500; -233,500;    0,000
327,522;63146,500;    2,500;    0,000
327,540;63229,500;   22,000;    0,000
327,558;63146,500; -252,000;    0,000
327,576;48656,000;  111,500;    0,000
327,594;63146,500; -333,000;    0,000
327,612; 4420,500; -128,000;    0,000
327,630;28176,500;  419,000;    0,000
327,648; 4552,500;  -25,500;    0,000
327,666; 4210,000; -158,500;    0,000
327,684; 4082,500;  -13,500;    0,000
327,702; 4358,000;  173,000;    0,000
327,720; 3552,000; -401,000;    0,000
327,738; 3466,000; -326,000;    0,000
327,756; 3636,500;    7,500;    0,000
327,774; 3762,000;  183,000;    0,000
327,792; 3320,500; -259,500;    0,000
327,810; 3368,000; -184,000;    0,000
327,828; 3359,500; -248,500;    0,000
327,846; 3469,500;  184,500;    0,000
327,864; 2903,500;  -49,000;    0,000
327,882; 3003,500;  139,000;    0,000
327,900; 2984,500;   64,500;    0,000
327,918; 2685,000; -109,500;    0,000
327,936; 2714,500;  -18,000;    0,000
327,954; 2627,000;   35,500;    0,000
327,972; 2906,000;  187,000;    0,000
327,990; 3211,500;  487,000;    0,000
328,008; 2090,000; -446,000;    0,000
328,026; 2136,000; -294,500;    0,000
328,044; 1784,000; -550,500;    0,000
328,062; 2451,000;  161,500;    0,000
328,080; 2267,500; -157,500;    0,000
328,098; 2301,000;  -56,500;    0,000
328,116; 1994,500; -354,500;    0,000
328,134; 1719,000; -372,500;    0,000
328,152; 1903,000; -113,500;    0,000
328,170; 2239,500;  276,000;    0,000
328,188; 2055,000; -158,500;    0,000
328,206; 1848,000; -249,500;    0,000
328,224; 2054,000;  -30,500;    0,000
328,242; 2071,500;  -61,000;    0,000
328,260; 1896,000; -193,000;    0,000
328,278; 2158,500;  187,500;    0,000
328,296; 1432,500; -423,000;    0,000
328,314; 1742,000;    3,500;    0,000
328,332; 1554,500; -187,000;    0,000
328,349; 1455,000; -281,000;    0,000
328,367; 1556,500; -244,500;    0,000
328,385; 1545,500; -179,000;    0,000
328,403; 3030,500; 1218,500;    0,000
328,421; 1206,500; -385,500;    0,000
328,439; 1252,000; -291,500;    0,000
328,457; 1012,500; -499,500;    0,000
328,475; 1277,000; -348,000;    0,000
328,493; 1805,500;  348,000;    0,000
328,511; 1391,000; -137,000;    0,000
328,529; 1419,000;  -27,000;    0,000
328,547; 1550,500;  126,000;    0,000
328,565; 1487,500;   27,500;    0,000
328,582; 1166,500;  -32,000;    0,000
328,600; 1354,500;  205,000;    0,000
328,618;  627,000; -486,500;    0,000
328,636;  642,000; -374,500;    0,000
328,654; 1461,500;  318,500;    0,000
328,672;  969,000; -174,000;    0,000
328,690; 1188,500;   54,000;    0,000
328,708;  627,500; -336,500;    0,000
328,726;  539,500; -425,500;    0,000
328,744;  713,000; -178,000;    0,000
328,761;  775,000; -280,000;    0,000
328,779;  829,500; -252,000;    0,000
328,797;  868,000; -142,500;    0,000
328,815;  996,500;   13,000;    0,000
328,833;  651,000; -293,500;    0,000
328,851;  770,500; -157,000;    0,000
328,869;  622,000; -264,500;    0,000
328,887;  629,000; -285,500;    0,000
328,904;  493,000; -363,500;    0,000
328,922;  868,500;   29,000;    0,000
328,940;  624,500; -204,000;    0,000
328,958;  976,000;   91,500;    0,000
328,976;  813,000;  -85,000;    0,000
328,994;  676,500; -165,000;    0,000
329,012;  927,000;  114,000;    0,000
329,029;  971,000;   75,500;    0,000
329,047; 1374,500;  376,500;    0,000
329,065;  364,500; -474,500;    0,000
329,083;  711,000;  -54,500;    0,000
329,101;  516,500; -291,000;    0,000
329,119;  692,000; -203,500;    0,000
329,136;  259,000; -576,000;    0,000
329,154;  648,000; -170,500;    0,000
329,172;  478,500; -252,500;    0,000
329,190;  736,500;  -11,500;    0,000
329,208; 1305,000;  613,000;    0,000
329,226;  684,000;   -4,500;    0,000
329,243;  663,000;  -22,500;    0,000
329,261;  171,000; -433,500;    0,000
329,279; 1205,500;  481,000;    0,000
329,297;  591,000;   26,500;    0,000
329,315;  680,000;   97,500;    0,000
329,332;  515,000;  -90,500;    0,000
329,350;  526,500;  -59,000;    0,000
329,368;  752,000;   96,000;    0,000
329,386;  602,500;  -89,000;    0,000
329,404;  689,500;   13,500;    0,000
329,421;  374,500; -335,500;    0,000
329,439;  819,500;   39,500;    0,000
329,457;  493,000; -232,500;    0,000
329,475;  422,500; -176,000;    0,000
329,493;  700,500;   69,500;    0,000
329,510;  585,000;  -75,000;    0,000
329,528;  -30,500; -661,500;    0,000
329,546;  -62,000; -709,500;    0,000
329,564; 1382,000;  700,000;    0,000
329,582;  564,000; -154,500;    0,000
329,599;  596,500; -119,500;    0,000
329,617;  955,000;   71,000;    0,000
329,635;  765,000;  191,000;    0,000
329,653;  640,500;   55,500;    0,000
329,670;  428,000; -112,500;    0,000
329,688;  738,500;  277,000;    0,000
329,706;  575,500;   62,000;    0,000
329,724;  428,000; -134,500;    0,000
329,741;  582,000;   77,500;    0,000
329,759;  398,500; -231,500;    0,000
329,777;  618,000;   83,500;    0,000
329,795;  440,500; -131,500;    0,000
329,812;  284,000; -288,500;    0,000
329,830;  708,500;  213,500;    0,000
329,848;  209,000; -325,000;    0,000
329,866;  329,500; -245,500;    0,000
329,883;  273,500; -190,000;    0,000
329,901;  624,500;   54,500;    0,000
329,919;  235,500; -363,500;    0,000
329,936;  535,000;  -58,000;    0,000
329,954;  657,500;   47,000;    0,000
329,972;  455,000;  -65,000;    0,000
329,990;  -19,000; -460,000;    0,000
330,007;  227,500; -249,000;    0,000
330,025; -245,500; -563,500;    0,000
330,043;  675,500;  187,000;    0,000
330,060;  -13,500; -592,500;    0,000
330,078;  113,000; -244,000;    0,000
330,096;  315,500; -149,500;    0,000
330,114;  100,500; -263,000;    0,000
330,131;  761,000;  432,500;    0,000
330,149;  210,500;  -92,500;    0,000
330,167;  652,500;  202,000;    0,000
330,184;  257,000; -172,000;    0,000
330,202;  267,000; -169,000;    0,000
330,220;  615,000;  135,000;    0,000
330,237;  473,000;  -55,500;    0,000
330,255;  471,000;   -8,000;    0,000
330,273;  513,500;   97,500;    0,000
330,290;   59,000; -313,500;    0,000
330,308;  592,500;  215,000;    0,000
330,326;  214,000; -280,000;    0,000
330,343;  461,500;  -21,500;    0,000
330,361;  647,000;  147,500;    0,000
330,379;  505,500;  -30,000;    0,000
330,396;  833,500;  246,000;    0,000
330,414;  218,000; -248,500;    0,000
330,432;  409,000;  -51,000;    0,000
330,449;  223,500; -165,500;    0,000
330,467;  223,000; -263,500;    0,000
330,485;    4,500; -420,500;    0,000
330,502;  111,500; -228,500;    0,000
330,520;  348,500; -133,500;    0,000
330,538;  484,500;  -15,000;    0,000
330,555;  390,500;  -69,000;    0,000
330,573;  176,500; -300,500;    0,000
330,591;  456,000;   -1,500;    0,000
330,608;  652,000;  223,000;    0,000
330,626;  539,500;   69,500;    0,000
330,643;  515,500;   39,000;    0,000
330,661;  193,000; -134,500;    0,000
330,679; -129,500; -437,000;    0,000
330,696;  448,000;  109,000;    0,000
330,714;   45,000; -347,500;    0,000
330,732;  251,000; -228,000;    0,000
330,749;  413,000;   -8,500;    0,000
330,767;  618,000;  320,000;    0,000
330,784;  259,500; -176,500;    0,000
330,802;  348,500;  -82,000;    0,000
330,820;  584,000;  175,000;    0,000
330,837;  320,500;   59,500;    0,000
330,855;  351,500;   45,000;    0,000
330,872;  310,000;  -13,500;    0,000
330,890;  821,500;  412,000;    0,000
330,908;  167,000; -171,000;    0,000
330,925;  271,500; -103,500;    0,000
330,943;  627,500;  105,500;    0,000
330,960;  335,500;  -66,000;    0,000
330,978;  502,000;  -20,500;    0,000
330,996;  524,000;   92,000;    0,000
331,013;  131,500; -380,000;    0,000
331,031;  582,000;  300,500;    0,000
331,048;  472,500;   87,500;    0,000
331,066;  178,500; -132,500;    0,000
331,083;  437,000;   28,000;    0,000
331,101;  645,500;  191,000;    0,000
331,118;  502,000;   73,000;    0,000
331,136;  252,500; -211,500;    0,000
331,154;  443,500;   22,500;    0,000
331,171;  443,000;   15,500;    0,000
331,189;  180,000; -100,500;    0,000
331,206;  211,500; -119,000;    0,000
331,224;  369,500;  117,000;    0,000
331,241;  846,500;  571,000;    0,000
331,259;  240,500; -185,500;    0,000
331,276;  126,500; -309,500;    0,000
331,294;  315,000; -116,000;    0,000
331,312;  269,000;  -88,000;    0,000
331,329;  -47,500; -389,500;    0,000
331,347;    8,000; -381,000;    0,000
331,364;  212,000; -237,000;    0,000
331,382;  763,000;  303,500;    0,000
331,399;  292,500;  -82,000;    0,000
331,417;  445,500;    4,000;    0,000
331,434;  299,000;  -50,500;    0,000
331,452;  432,500;  -10,500;    0,000
331,469;  197,500; -300,500;    0,000
331,487;  490,500;    8,500;    0,000
331,504;  416,000;  -26,500;    0,000
331,522;  662,000;   83,500;    0,000
331,539; 1022,500; -104,500;    0,000
331,557; 2069,500;  -46,500;    0,000
331,574; 2034,000;   11,000;    0,000
331,592; 1517,500;  -37,500;    0,000
331,609; 1219,000;  455,500;    0,000
331,627;  509,000;   34,500;    0,000
331,644;  207,500; -169,500;    0,000
331,662;   54,500; -385,500;    0,000
331,679;  255,000;  -41,000;    0,000
331,697;  158,000; -209,500;    0,000
331,714;  238,500; -167,000;    0,000
331,732;  602,500;  233,000;    0,000
331,749;  785,500;  425,000;    0,000
331,767;  341,000; -168,000;    0,000
331,784;  135,000; -233,000;    0,000
331,801;  582,000;  179,000;    0,000
331,819;  172,500; -219,000;    0,000
331,836;   47,500; -291,500;    0,000
331,854;  202,500; -159,500;    0,000
331,871;  395,000;   89,000;    0,000
331,889;  672,000;  253,000;    0,000
331,906;   66,000; -265,000;    0,000
331,924;  486,500;  116,000;    0,000
331,941;  859,000;  452,000;    0,000
331,959;  831,500;  392,500;    0,000
331,976;  -47,500; -312,000;    0,000
331,993;  -67,000; -348,000;    0,000
332,011;  380,500;  111,500;    0,000
332,028;  268,500;  -57,000;    0,000
332,046;  460,000;   93,000;    0,000
332,063;  223,500;  -31,500;    0,000
332,081;  -10,000; -285,000;    0,000
332,098;  -35,500; -463,500;    0,000
332,115;  222,000; -160,000;    0,000
332,133;  -77,000; -370,500;    0,000
332,150;  168,000;  -99,000;    0,000
332,168;  407,000;  204,000;    0,000
332,185;  130,000; -130,000;    0,000
332,203;   99,000; -145,000;    0,000
332,220;  208,000;  -33,500;    0,000
332,237;  522,000;  218,500;    0,000
332,255;  -40,000; -286,000;    0,000
332,272;  334,000;    4,500;    0,000
332,290; -171,000; -485,500;    0,000
332,307;  160,000; -233,000;    0,000
332,324;  413,500;   25,000;    0,000
332,342;  546,000;  142,500;    0,000
332,359;  627,500;  346,000;    0,000
332,376;  148,500; -214,000;    0,000
332,394;  386,500;   62,000;    0,000
332,411;  -39,500; -269,000;    0,000
332,429;  217,500; -239,000;    0,000
332,446;  159,500; -134,000;    0,000
332,463; -249,000; -496,000;    0,000
332,481;  -48,000; -290,500;    0,000
332,498;  591,000;  246,500;    0,000
332,515;  641,500;  325,500;    0,000
332,533;  487,000;   47,500;    0,000
332,550;  262,500;  -16,000;    0,000
332,568;  724,500;  470,500;    0,000
332,585;   27,500; -322,000;    0,000
332,602;   15,500; -265,500;    0,000
332,620;  358,500;  -42,500;    0,000
332,637;  448,500;  219,000;    0,000
332,654;  -73,500; -464,000;    0,000
332,672;   45,500; -168,000;    0,000
332,689;  351,500;  109,000;    0,000
332,706;  163,000;  -73,500;    0,000
332,724;  314,500;    4,000;    0,000
332,741;  455,000;  173,000;    0,000
332,758;   41,500; -351,000;    0,000
332,776;   54,000; -200,500;    0,000
332,793;  285,500;   39,000;    0,000
332,810; -159,500; -419,000;    0,000
332,828;   99,500; -188,000;    0,000
332,845;  682,000;  441,000;    0,000
332,862;  100,000; -257,500;    0,000
332,880; -234,000; -612,500;    0,000
332,897; -228,000; -466,500;    0,000
332,914;  409,500;  140,000;    0,000
332,931;  -30,000; -175,500;    0,000
332,949;  222,500;    9,000;    0,000
332,966;  250,000;    5,500;    0,000
332,983; -123,500; -291,500;    0,000
333,001;  170,500; -114,000;    0,000
333,018;  146,500;  -51,000;    0,000
333,035; -166,500; -415,500;    0,000
333,053;   12,500; -274,500;    0,000
333,070;  567,500;  320,000;    0,000
333,087;  120,000; -231,500;    0,000
333,104;  -40,500; -210,000;    0,000
333,122;  224,000;  -38,000;    0,000
333,139;  541,000;  352,500;    0,000
333,156;  276,000;  -70,500;    0,000
333,174;  179,000; -168,000;    0,000
333,191;   36,500; -342,000;    0,000
333,208;  -51,000; -348,500;    0,000
333,225;  -27,000; -294,000;    0,000
333,243;  -65,000; -374,500;    0,000
333,260;  340,000;  -16,500;    0,000
333,277;  538,500;  228,500;    0,000
333,294;   87,000; -247,500;    0,000
333,312;  232,500;  -58,000;    0,000
333,329;  307,000;   64,500;    0,000
333,346;  284,000;  -30,500;    0,000
333,363;  127,000; -129,000;    0,000
333,381; -103,500; -341,000;    0,000
333,398;  669,000;  341,500;    0,000
333,415;  353,500;  102,000;    0,000
333,432;  103,500; -177,500;    0,000
333,450;  225,500;   41,000;    0,000
333,467;  731,000;  467,000;    0,000
333,484;  373,500;   53,500;    0,000
333,501;  281,000;   34,000;    0,000
333,518;  302,500;   39,000;    0,000
333,536;   66,000; -152,500;    0,000
333,553;  369,500;   80,000;    0,000
333,570;  -50,000; -356,500;    0,000
333,587;   26,500; -224,000;    0,000
333,604;  -63,500; -332,000;    0,000
333,622; -249,000; -557,500;    0,000
333,639;  280,500;   65,000;    0,000
333,656;  121,000; -141,500;    0,000
333,673;  427,500;  137,000;    0,000
333,691;  690,000;  334,500;    0,000
333,708;  168,000; -172,000;    0,000
333,725;  197,500; -133,000;    0,000
333,742;  -86,000; -341,000;    0,000
333,759;  177,000; -121,500;    0,000
333,776; -324,500; -559,000;    0,000
333,794;   31,000; -185,000;    0,000
333,811;  518,500;  286,500;    0,000
333,828; -359,000; -579,500;    0,000
333,845;   76,000; -333,000;    0,000
333,862;  118,500; -208,000;    0,000
333,880;  868,000;  609,000;    0,000
333,897;  190,000; -176,000;    0,000
333,914;  361,000;   78,000;    0,000
333,931;    4,000; -158,000;    0,000
333,948;  870,000;  549,500;    0,000
333,965;  393,000;  137,500;    0,000
333,982;   66,500; -216,000;    0,000
334,000;  114,500; -135,000;    0,000
334,017;   43,500; -209,000;    0,000
334,034;  230,000;   27,500;    0,000
334,051;  229,000;    1,500;    0,000
334,068;   48,000; -237,500;    0,000
334,085;  265,500;   26,500;    0,000
334,102;  170,500;  -82,000;    0,000
334,120;   93,500; -184,500;    0,000
334,137;  477,500;  170,500;    0,000
334,154;  513,500;  236,000;    0,000
334,171;  120,500; -102,000;    0,000
334,188;  237,000;    2,000;    0,000
334,205;  275,000;   46,500;    0,000
334,222;  808,500;  536,000;    0,000
334,239;  -71,500; -292,500;    0,000
334,257;  254,500;  -30,500;    0,000
334,274;  120,500; -197,000;    0,000
334,291;  304,000;  -18,000;    0,000
334,308; -134,500; -429,000;    0,000
334,325;  175,500;  -54,500;    0,000
334,342;  116,500; -172,500;    0,000
334,359;  -98,000; -240,000;    0,000
334,376;    1,000; -207,500;    0,000
334,393;   48,000; -188,500;    0,000
334,411;  127,000;  -79,500;    0,000
334,428; -209,000; -489,500;    0,000
334,445;  604,000;  178,500;    0,000
334,462; -121,000; -380,000;    0,000
334,479;  199,000;  -52,500;    0,000
334,496;  -18,000; -300,000;    0,000
334,513;  172,500; -141,000;    0,000
334,530; -149,500; -472,000;    0,000
334,547;  261,500;  -21,500;    0,000
334,564; -215,000; -525,500;    0,000
334,581;   29,000; -228,500;    0,000
334,598;  175,500;  -80,000;    0,000
334,615;  208,000;  -26,500;    0,000
334,633;   -4,000; -274,000;    0,000
334,650;  -13,500; -227,000;    0,000
334,667;  486,000;  106,500;    0,000
334,684;  237,500; -157,500;    0,000
334,701;  -57,500; -492,500;    0,000
334,718;  924,000;  468,500;    0,000
334,735;  377,000;   11,000;    0,000
334,752;   58,000; -371,000;    0,000
334,769;  155,000; -157,000;    0,000
334,786; -305,500; -476,500;    0,000
334,803;  535,500;   95,000;    0,000
334,820;  326,500;   60,000;    0,000
334,837; -306,500; -524,500;    0,000
334,854;  191,500;    5,000;    0,000
334,871;  204,500; -130,500;    0,000
334,888;   52,000; -183,000;    0,000
334,905;  599,000;  364,500;    0,000
334,922;  360,000;   75,500;    0,000
334,939; -227,000; -433,500;    0,000
334,956;    2,000; -229,500;    0,000
334,973;   77,500; -148,500;    0,000
334,990; -369,500; -594,000;    0,000
335,007;  425,500;   34,500;    0,000
335,024;  277,500;   33,000;    0,000
335,041;  475,500;  116,000;    0,000
335,058; -186,000; -450,500;    0,000
335,075; -102,500; -306,500;    0,000
335,092;   25,500; -277,000;    0,000
335,109; -110,000; -353,500;    0,000
335,126;    8,000; -283,500;    0,000
335,143;  141,500; -105,500;    0,000
335,160;  652,000;  271,500;    0,000
335,177;  680,000;  332,000;    0,000
335,194; -103,000; -465,000;    0,000
335,211;  312,500; -116,000;    0,000
335,228;  130,500; -196,000;    0,000
335,245;  135,500; -351,500;    0,000
335,262; -143,000; -431,500;    0,000
335,279;  162,000; -218,500;    0,000
335,296;   65,000; -243,000;    0,000
335,313;  510,500;  223,500;    0,000
335,330;  575,500;  196,000;    0,000
335,347;  410,000; -146,000;    0,000
335,364;  522,000; -184,500;    0,000
335,381;  745,000; -120,000;    0,000
335,398; 2016,500;  958,500;    0,000
335,415; 1018,500; -452,000;    0,000
335,432; 2010,000; -309,000;    0,000
335,448; 4139,500; -153,500;    0,000
335,465; 5986,500; -179,000;    0,000
335,482;10121,500;  -75,000;    0,000
335,499;16153,000; -380,000;    0,000
335,516;18493,500;  -79,500;    0,000
335,533;14086,500; -191,000;    0,000
335,550; 8859,500; -306,500;    0,000
335,567; 3877,000;  -84,500;    0,000
335,584;  812,000; -380,500;    0,000
335,601;  481,000; -132,000;    0,000
335,618;  258,000; -204,500;    0,000
335,635;  150,000; -417,500;    0,000
335,652;  404,000; -129,500;    0,000
335,668;  285,000;  -87,500;    0,000
335,685;  226,000; -110,000;    0,000
335,702;   49,000; -246,500;    0,000
335,719;   25,500; -341,000;    0,000
335,736;  392,000;    7,000;    0,000
335,753;   53,000; -156,000;    0,000
335,770;  355,000;   60,500;    0,000
335,787;  352,000;  -44,500;    0,000
335,804;  -73,500; -257,000;    0,000
335,821;  394,500;   89,000;    0,000
335,837;  124,500; -207,000;    0,000
335,854; -146,000; -450,000;    0,000
335,871;  183,000;  -84,500;    0,000
335,888;   86,500; -200,500;    0,000
335,905;  177,500;  -84,000;    0,000
335,922;  427,000;  212,500;    0,000
335,939;  518,000;  194,000;    0,000
335,956;  -45,000; -303,500;    0,000
335,972;  348,000;  129,500;    0,000
335,989;  382,500;  100,000;    0,000
336,006;  -17,500; -264,000;    0,000
336,023;  113,500;  -93,500;    0,000
336,040;   36,500; -196,000;    0,000
336,057;  292,500;  -46,500;    0,000
336,074;  474,500;  174,000;    0,000
336,090;   82,000; -213,500;    0,000
336,107; -526,500; -701,000;    0,000
336,124;  239,500;  -94,500;    0,000
336,141; -265,000; -493,500;    0,000
336,158;  176,500; -124,500;    0,000
336,175;  274,000;  -35,000;    0,000
336,191;  684,000;  350,500;    0,000
336,208; -130,000; -483,500;    0,000
336,225;  282,000;   61,000;    0,000
336,242;  -19,000; -270,500;    0,000
336,259;  327,500;   90,500;    0,000
336,275;   95,000;  -44,000;    0,000
336,292;  -17,500; -191,000;    0,000
336,309; -109,000; -285,500;    0,000
336,326; 1263,000; 1006,500;    0,000
336,343;  370,500;  100,000;    0,000
336,360;  147,000; -106,000;    0,000
336,376;  -85,000; -332,500;    0,000
336,393;  673,000;  346,000;    0,000
336,410;  -39,500; -280,000;    0,000
336,427;   91,500;  -73,500;    0,000
336,444; -154,500; -432,500;    0,000
336,460;   74,000; -230,500;    0,000
336,477;  585,500;  352,500;    0,000
336,494;  258,500;   -9,500;    0,000
336,511;  -35,500; -231,000;    0,000
336,527;  -19,500; -177,500;    0,000
336,544;   79,000; -117,500;    0,000
336,561;  227,500;  -46,000;    0,000
336,578;   83,000; -258,000;    0,000
336,595;  514,500;  268,000;    0,000
336,611; -447,500; -723,000;    0,000
336,628;  -93,000; -365,000;    0,000
336,645;   -5,500; -215,000;    0,000
336,662;   21,000; -189,500;    0,000
336,678;  355,000;  107,000;    0,000
336,695;  601,500;  358,500;    0,000
336,712;  -61,500; -271,000;    0,000
336,729;  152,500; -120,500;    0,000
336,745;  326,500;   32,000;    0,000
336,762;  147,000; -150,000;    0,000
336,779;  -60,000; -418,000;    0,000
336,796;   70,000; -347,000;    0,000
336,812;  -38,000; -391,500;    0,000
336,829;  140,000; -177,500;    0,000
336,846;  -47,500; -317,000;    0,000
336,863;  266,500;  -26,000;    0,000
336,879;  351,000;  161,500;    0,000
336,896; -241,500; -460,000;    0,000
336,913;   18,000; -275,000;    0,000
336,929;  166,500; -107,000;    0,000
336,946;  439,000;  255,500;    0,000
336,963;  275,000;    4,500;    0,000
336,980;  247,500;  -81,000;    0,000
336,996; -318,500; -553,000;    0,000
337,013;   24,500; -203,000;    0,000
337,030;   63,000; -166,500;    0,000
337,046;  178,500;  -48,000;    0,000
337,063;  470,500;  221,500;    0,000
337,080;  509,000;  222,500;    0,000
337,096;  225,000;  -28,500;    0,000
337,113; -142,500; -314,500;    0,000
337,130;  244,000;  -57,000;    0,000
337,147;  575,000;  289,500;    0,000
337,163; -133,000; -387,000;    0,000
337,180;   80,500; -131,500;    0,000
337,197;  408,500;   96,500;    0,000
337,213;  301,000;   34,000;    0,000
337,230;  190,000;  -48,500;    0,000
337,247;   33,500; -221,000;    0,000
337,263;  177,500; -115,000;    0,000
337,280;  287,000;    1,000;    0,000
337,297;  -40,000; -352,500;    0,000
337,313;  115,000; -110,500;    0,000
337,330;  454,500;  204,500;    0,000
337,347;  641,500;  376,000;    0,000
337,363;  201,000;  -55,500;    0,000
337,380;  -97,000; -488,500;    0,000
337,397;  503,000;  150,500;    0,000
337,413; -124,500; -401,000;    0,000
337,430;   41,500; -189,500;    0,000
337,446; -386,500; -644,000;    0,000
337,463;  438,000;   25,500;    0,000
337,480;  397,500;   25,000;    0,000
337,496;  393,500;  -21,500;    0,000
337,513;  -50,500; -339,000;    0,000
337,530; -171,000; -406,500;    0,000
337,546;  -23,000; -289,500;    0,000
337,563;  191,000;  -60,000;    0,000
337,580; -152,500; -425,000;    0,000
337,596;  332,000;  244,000;    0,000
337,613;  -20,500; -170,500;    0,000
337,629;   90,000; -153,000;    0,000
337,646;  202,500;  -45,500;    0,000
337,663;  234,000;  -63,500;    0,000
337,679;  361,000;  229,500;    0,000
337,696;  214,000;  -98,500;    0,000
337,712;  457,000;  164,500;    0,000
337,729;  671,500;  403,000;    0,000
337,746;  139,000; -138,000;    0,000
337,762;  -33,000; -348,500;    0,000
337,779;  166,000;  -54,500;    0,000
337,795;  166,000;   49,000;    0,000
337,812;  189,000;  -68,500;    0,000
337,829;   12,000; -245,500;    0,000
337,845; -147,500; -333,500;    0,000
337,862; -222,500; -462,500;    0,000
337,878;  310,000;   87,500;    0,000
337,895;  -96,000; -408,500;    0,000
337,911; -255,000; -468,000;    0,000
337,928;  -76,000; -369,000;    0,000
337,945;  315,000;  106,500;    0,000
337,961;  294,500;  -54,500;    0,000
337,978; -157,000; -419,500;    0,000
337,994;  637,000;  250,000;    0,000
338,011; -359,000; -578,500;    0,000
338,027;   43,000; -234,000;    0,000
338,044;  211,500;  -55,500;    0,000
338,060;  936,000;  722,000;    0,000
338,077;  245,500;  -41,000;    0,000
338,094; -117,000; -391,500;    0,000
338,110;   68,500; -281,500;    0,000
338,127;   84,500; -293,000;    0,000
338,143;  259,000;  -21,500;    0,000
338,160;  -12,500; -279,000;    0,000
338,176; -346,500; -568,000;    0,000
338,193;  484,500;  117,000;    0,000
338,209;  280,000;  -20,500;    0,000
338,226; -107,000; -496,000;    0,000
338,242; -246,500; -530,000;    0,000
338,259;   61,000; -257,000;    0,000
338,275;  584,000;  371,500;    0,000
338,292;   31,500; -243,500;    0,000
338,308; -120,500; -288,000;    0,000
338,325;  348,000;   39,500;    0,000
338,341;   95,500; -164,500;    0,000
338,358;   31,500; -219,500;    0,000
338,374;  135,000;  -74,000;    0,000
338,391;  -13,500; -370,500;    0,000
338,407;  220,000; -109,500;    0,000
338,424;  294,500;   -3,500;    0,000
338,440; -290,000; -565,000;    0,000
338,457;  131,000; -274,000;    0,000
338,473;  355,000;   45,500;    0,000
338,490;  212,500; -114,000;    0,000
338,506;   23,500; -131,000;    0,000
338,523;   34,500; -231,500;    0,000
338,539;   -2,500; -223,000;    0,000
338,556;  215,000;  -72,500;    0,000
338,572;  212,000; -116,500;    0,000
338,589; -106,000; -446,000;    0,000
338,605;  123,500; -115,000;    0,000
338,622;   48,500; -273,500;    0,000
338,638;  -37,500; -392,500;    0,000
338,654; -140,500; -528,500;    0,000
338,671; -314,000; -665,000;    0,000
338,687;  161,500; -278,000;    0,000
338,704;  212,500;  -81,000;    0,000
338,720;  123,500; -174,500;    0,000
338,737;  109,500; -114,500;    0,000
338,753;  242,500;  -39,000;    0,000
338,770;  593,000;  166,000;    0,000
338,786;   28,000; -377,500;    0,000
338,802;  411,000;   36,500;    0,000
338,819;    3,500; -317,500;    0,000
338,835;  261,000;  -76,000;    0,000
338,852;  758,000;  357,000;    0,000
338,868;  459,000;   71,000;    0,000
338,885;  210,000; -141,000;    0,000
338,901;  291,500;  -43,000;    0,000
338,917;   86,000; -236,500;    0,000
338,934;  688,000;  252,000;    0,000
338,950;   72,000; -285,000;    0,000
338,967;   30,000; -244,500;    0,000
338,983;  639,000;  274,000;    0,000
338,999;  531,000;  235,500;    0,000
339,016;  297,500;  -66,500;    0,000
339,032;   36,000; -389,500;    0,000
339,049;   28,500; -248,500;    0,000
339,065;  207,500; -245,500;    0,000
339,081;  322,000;  -76,500;    0,000
339,098; -131,500; -534,500;    0,000
339,114;  317,500; -182,000;    0,000
339,131;  304,000;  -80,500;    0,000
339,147;   98,000; -344,000;    0,000
339,163;   82,000; -363,500;    0,000
339,180;  336,000;   68,500;    0,000
339,196;  296,500; -126,500;    0,000
339,212;   74,500; -371,500;    0,000
339,229;   31,000; -445,500;    0,000
339,245;  892,500;  403,000;    0,000
339,262;  544,000;   90,000;    0,000
339,278;  330,500;    9,500;    0,000
339,294;  345,500;  -71,000;    0,000
339,311;  211,000; -202,000;    0,000
339,327;  181,500; -290,000;    0,000
339,343;  388,500;   24,000;    0,000
339,360;  -67,500; -437,500;    0,000
339,376;  187,000; -196,000;    0,000
339,392;  608,500;  225,500;    0,000
339,409;  323,000;  -26,000;    0,000
339,425; -173,500; -410,000;    0,000
339,441;  227,500; -127,000;    0,000
339,458;  270,500;   38,000;    0,000
339,474;  473,500;   57,500;    0,000
339,490;  296,500;  -15,000;    0,000
339,507;  177,000; -177,500;    0,000
339,523; -142,000; -426,500;    0,000
339,539;  254,500;  -62,000;    0,000
339,556;  225,000;  -59,500;    0,000
339,572;  463,000;  244,000;    0,000
339,588;  -96,500; -395,000;    0,000
339,605;  251,500; -166,500;    0,000
339,621;  118,000; -201,500;    0,000
339,637;  316,000; -123,000;    0,000
339,653;  741,500;  402,000;    0,000
339,670;  319,500;  -64,000;    0,000
339,686;  -30,500; -318,500;    0,000
339,702;  542,500;  187,000;    0,000
339,719;  380,000;   11,500;    0,000
339,735;  186,000; -202,000;    0,000
339,751;  370,500;  -74,500;    0,000
339,767;  555,000;  148,500;    0,000
339,784;  627,000;  270,000;    0,000
339,800;  580,500;  -19,500;    0,000
339,816;  218,000; -306,000;    0,000
339,833;  508,500;   76,500;    0,000
339,849;  251,500; -300,000;    0,000
339,865;  577,000;   18,500;    0,000
339,881;  671,000;    3,000;    0,000
339,898;  557,500; -319,000;    0,000
339,914;  401,500; -326,000;    0,000
339,930;  811,500;  -26,500;    0,000
339,946;  733,500; -117,000;    0,000
339,963;  296,000; -529,000;    0,000
339,979;  987,500;  210,500;    0,000
339,995; 1116,000;  102,000;    0,000
340,011; 1230,500;  -18,500;    0,000
340,028; 1683,000; -160,500;    0,000
340,044; 2492,000; -189,500;    0,000
340,060; 3016,500; -181,000;    0,000
340,076; 2876,000; -523,500;    0,000
340,093; 3517,000;  247,500;    0,000
340,109; 2508,500; -552,500;    0,000
340,125; 4157,500;   58,000;    0,000
340,141; 6934,500; -290,000;    0,000
340,158;11669,500; -289,000;    0,000
340,174;16493,500; -441,500;    0,000
340,190;20906,000; -116,500;    0,000
340,206;25133,500; -376,500;    0,000
340,222;38232,500;  504,500;    0,000
340,239;61917,000; -119,500;    0,000
340,255;63229,500;  231,000;    0,000
340,271;63146,500; -115,500;    0,000
340,287;63229,500;  -64,500;    0,000
340,303;63146,500;  130,000;    0,000
340,320;63229,500; -457,000;    0,000
340,336;63146,500;  -54,000;    0,000
340,352;63229,500;  189,000;    0,000
340,368;63146,500;   88,500;    0,000
340,384;63229,500;  148,000;    0,000
340,401;63146,500; -112,500;    0,000
340,417;63229,500;   47,500;    0,000
340,433;63146,500; -227,000;    0,000
340,449;63229,500; -293,000;    0,000
340,465;63146,500;  -82,500;    0,000
340,481;63229,500;  351,500;    0,000
340,498;63146,500;  322,500;    0,000
340,514;63229,500; -231,500;    0,000
340,530;63146,500; -340,500;    0,000
340,546;63229,500;  250,500;    0,000
340,562;63146,500; -221,500;    0,000
340,578;63229,500;  111,000;    0,000
340,595;63146,500; -179,000;    0,000
340,611;63229,500;  179,500;    0,000
340,627;63146,500; -490,000;    0,000
340,643;63229,500; -365,000;    0,000
340,659;63146,500; -695,000;    0,000
340,675;63229,500;  103,500;    0,000
340,691;63146,500; -327,500;    0,000
340,708;63229,500; -409,000;    0,000
340,724;63146,500;  -16,500;    0,000
340,740;63229,500; -130,000;    0,000
340,756;63146,500; -320,500;    0,000
340,772;63229,500;  -10,000;    0,000
340,788;63146,500;  -73,000;    0,000
340,804;63229,500;  236,500;    0,000
340,820;63146,500;    4,000;    0,000
340,836;63229,500; -337,500;    0,000
340,853;63146,500; -420,500;    0,000
340,869;63229,500;   88,000;    0,000
340,885;63146,500; -476,000;    0,000
340,901;63229,500;  -11,000;    0,000
340,917;63146,500; -428,000;    0,000
340,933;63229,500; -472,500;    0,000
340,949;63146,500; -320,500;    0,000
340,965;63229,500;   12,000;    0,000
340,981;63146,500; -361,000;    0,000
340,997;63229,500; -354,000;    0,000
341,014;63146,500;  531,500;    0,000
341,030;63229,500;  -18,500;    0,000
341,046;63146,500; -142,500;    0,000
341,062;63229,500;  528,000;    0,000
341,078;63146,500; -374,000;    0,000
341,094;63229,500;   34,500;    0,000
341,110;63146,500; -294,500;    0,000
341,126; 8978,000;  126,500;    0,000
341,142;63146,500;    7,000;    0,000
341,158; 2553,000; -184,000;    0,000
341,174; 3397,000; -218,000;    0,000
341,190; 2241,500; -145,500;    0,000
341,206; 2177,000; -443,000;    0,000
341,222; 2187,500;   20,000;    0,000
341,238; 1610,500; -683,500;    0,000
341,255; 1642,000; -266,500;    0,000
341,271; 1631,500; -338,000;    0,000
341,287; 1609,000; -116,500;    0,000
341,303; 1724,000; -100,500;    0,000
341,319; 1497,500; -116,000;    0,000
341,335; 1641,000;   43,500;    0,000
341,351; 1712,000;  183,500;    0,000
341,367; 1088,500; -217,500;    0,000
341,383; 1464,500;   49,500;    0,000
341,399; 2009,000;  605,500;    0,000
341,415; 1497,000;  147,500;    0,000
341,431;  933,000; -444,500;    0,000
341,447; 1117,000; -153,000;    0,000
341,463; 1118,000;  -88,500;    0,000
341,479; 1115,000; -111,500;    0,000
341,495; 1018,500; -115,500;    0,000
341,511; 1451,000;  298,500;    0,000
341,527; 1732,500;  605,500;    0,000
341,543;  952,500;  -23,500;    0,000
341,559;  984,500;  -79,000;    0,000
341,575;  765,000; -298,000;    0,000
341,591;  715,500; -275,000;    0,000
341,607;  645,500; -353,500;    0,000
341,623; 1030,500;   34,000;    0,000
341,639; 1047,000;  170,000;    0,000
341,655;  880,500;    7,000;    0,000
341,671;  831,500;  -60,000;    0,000
341,687;  979,500;   63,000;    0,000
341,703;  506,500; -315,000;    0,000
341,719;  941,500;   11,500;    0,000
341,735;  955,000;   61,000;    0,000
341,751;  755,500;  -86,000;    0,000
341,767;  938,000;  160,000;    0,000
341,783;  638,000;  -99,000;    0,000
341,799;  613,500; -109,500;    0,000
341,815;  843,500;   58,000;    0,000
341,830; 1447,500;  648,000;    0,000
341,846;  531,000; -288,500;    0,000
341,862;  765,500;  -40,000;    0,000
341,878;  114,000; -620,000;    0,000
341,894;  261,500; -410,000;    0,000
341,910; 1031,000;  394,500;    0,000
341,926;  261,000; -322,500;    0,000
341,942;  727,500;   42,500;    0,000
341,958;  380,500; -293,500;    0,000
341,974;  898,000;  234,000;    0,000
341,990;  721,000;  -33,000;    0,000
342,006;  239,500; -469,500;    0,000
342,022;  308,500; -378,000;    0,000
342,038;  327,000; -347,000;    0,000
342,054;  155,500; -420,000;    0,000
342,069;  230,500; -340,500;    0,000
342,085;  792,000;  152,000;    0,000
342,101;  385,500; -213,000;    0,000
342,117;  508,000;  -25,500;    0,000
342,133;  129,500; -452,000;    0,000
342,149; -108,500; -533,500;    0,000
342,165;  147,000; -408,000;    0,000
342,181;  520,000;   71,000;    0,000
342,197;  518,000;   24,000;    0,000
342,213;  333,500; -218,000;    0,000
342,228;  763,000;  310,000;    0,000
342,244;   17,000; -496,500;    0,000
342,260;  377,000;  -28,500;    0,000
342,276;  705,500;  158,500;    0,000
342,292;  334,500; -177,500;    0,000
342,308;  191,000; -370,000;    0,000
342,324;  379,500; -174,500;    0,000
342,340;  155,000; -474,500;    0,000
342,355;  271,500; -288,000;    0,000
342,371;  663,000;   52,000;    0,000
342,387;  241,500; -258,000;    0,000
342,403;  769,500;  302,500;    0,000
342,419;  336,500; -114,500;    0,000
342,435;  527,500;   95,000;    0,000
342,451;  264,500; -233,000;    0,000
342,466;  570,000;   82,000;    0,000
342,482;  739,000;  308,000;    0,000
342,498;  177,500; -225,500;    0,000
342,514;  -80,500; -496,500;    0,000
342,530;  518,000;  167,000;    0,000
342,546;  331,000;  -96,500;    0,000
342,562;  128,000; -256,000;    0,000
342,577;  -28,500; -397,000;    0,000
342,593;  180,500; -353,500;    0,000
342,609;  605,000;  202,500;    0,000
342,625;  328,000; -213,500;    0,000
342,641;   51,000; -424,000;    0,000
342,656;  529,500;  171,500;    0,000
342,672;  550,500;   92,000;    0,000
342,688;  312,000; -135,000;    0,000
342,704;  436,000;  110,000;    0,000
342,720;  341,000;  -88,500;    0,000
342,736;  277,000; -140,500;    0,000
342,751;  697,500;  310,500;    0,000
342,767; -230,000; -568,500;    0,000
342,783;  233,500; -135,000;    0,000
342,799;  371,500;  124,500;    0,000
342,815;   92,000; -263,500;    0,000
342,830;  -41,000; -441,000;    0,000
342,846;  600,500;  154,500;    0,000
342,862;  615,000;  280,500;    0,000
342,878;   29,500; -299,000;    0,000
342,893;  177,000; -237,000;    0,000
342,909;  156,000; -128,500;    0,000
342,925; -135,000; -456,000;    0,000
342,941;  404,000;  142,000;    0,000
342,957;  533,500;  114,500;    0,000
342,972;  248,000;  -28,500;    0,000
342,988;  271,000;  -44,500;    0,000
343,004;  185,000; -172,000;    0,000
343,020;  -61,000; -378,500;    0,000
343,035;  618,500;  171,000;    0,000
343,051;  675,000;  315,500;    0,000
343,067;  431,000;   50,500;    0,000
343,083;  190,500; -211,500;    0,000
343,098;  128,000; -281,500;    0,000
343,114;  688,500;  214,000;    0,000
343,130;  381,000;  -77,500;    0,000
343,146;  218,500;  -75,000;    0,000
343,161;  564,500;  246,000;    0,000
343,177; -166,000; -428,000;    0,000
343,193;   56,500; -220,000;    0,000
343,208;  290,500;   30,000;    0,000
343,224;  220,000; -134,000;    0,000
343,240; -238,000; -506,500;    0,000
343,256;  -91,500; -290,000;    0,000
343,271;  281,000;  -33,000;    0,000
343,287;   97,500; -147,000;    0,000
343,303;  465,000;  245,000;    0,000
343,318;  155,500; -156,500;    0,000
343,334;  595,500;  372,500;    0,000
343,350;   35,000; -342,500;    0,000
343,366;  -13,500; -325,000;    0,000
343,381;  406,000;   77,500;    0,000
343,397;  465,500;  146,500;    0,000
343,413;  313,500;  -48,000;    0,000
343,428;  362,500;  -27,500;    0,000
343,444;  454,500;   -2,000;    0,000
343,460;  192,000; -137,500;    0,000
343,475;  627,000;  246,000;    0,000
343,491;  188,000; -213,500;    0,000
343,507;   43,500; -338,000;    0,000
343,522;  -50,500; -367,500;    0,000
343,538;  693,500;  391,000;    0,000
343,554; -553,500; -868,000;    0,000
343,569;   42,500; -238,000;    0,000
343,585;   67,000; -184,500;    0,000
343,601;  623,500;  312,000;    0,000
343,616;   81,500; -129,000;    0,000
343,632;  241,000;  -94,500;    0,000
343,648; -231,000; -479,000;    0,000
343,663; -132,000; -381,500;    0,000
343,679;   12,500; -129,500;    0,000
343,695;  335,500;   54,500;    0,000
343,710;  241,500;  -66,500;    0,000
343,726;  458,000;  235,000;    0,000
343,742;  219,000;  -90,000;    0,000
343,757;  192,500; -219,000;    0,000
343,773;  115,000; -164,000;    0,000
343,789;  286,500;  -94,500;    0,000
343,804;  529,000;  227,500;    0,000
343,820;  -27,000; -341,500;    0,000
343,835;  274,000; -184,500;    0,000
343,851;  210,000;  -88,500;    0,000
343,867; -412,000; -777,500;    0,000
343,882;  311,000;  -29,500;    0,000
343,898;  183,500; -210,000;    0,000
343,914; -107,500; -487,500;    0,000
343,929;  431,000;  111,500;    0,000
343,945;  218,500; -118,000;    0,000
343,960;  249,500;  -57,000;    0,000
343,976;  155,500; -171,000;    0,000
343,992;  581,000;  219,000;    0,000
344,007;  328,000;  -46,500;    0,000
344,023;  180,000; -169,000;    0,000
344,038;  903,000;  390,500;    0,000
344,054;  631,000;  230,000;    0,000
344,069;  242,000; -224,500;    0,000
344,085;   94,000; -244,500;    0,000
344,101;  382,500;  118,500;    0,000
344,116;   42,500; -225,000;    0,000
344,132;  -39,000; -307,500;    0,000
344,147; -206,000; -555,500;    0,000
344,163;  335,500;    5,500;    0,000
344,178;   -3,000; -389,000;    0,000
344,194;  480,500;   92,000;    0,000
344,210;  242,500; -123,000;    0,000
344,225;  255,500;  -27,000;    0,000
344,241;  -87,000; -406,500;    0,000
344,256;  406,000;   -2,000;    0,000
344,272;   63,500; -259,000;    0,000
344,287;  658,500;  282,000;    0,000
344,303;  403,500;  -12,500;    0,000
344,318;   45,000; -336,500;    0,000
344,334;  418,000;  101,000;    0,000
344,350;  475,000;  134,500;    0,000
344,365;  557,000;  132,000;    0,000
344,381; -311,500; -668,500;    0,000
344,396;  241,500; -129,500;    0,000
344,412;  138,500; -187,500;    0,000
344,427;  386,500;   71,000;    0,000
344,443;  177,000; -108,500;    0,000
344,458;   65,000; -434,500;    0,000
344,474;  211,500; -237,000;    0,000
344,489;  463,000;   48,000;    0,000
344,505;   34,500; -330,500;    0,000
344,520;   98,500; -293,500;    0,000
344,536;  145,000; -237,500;    0,000
344,551;  375,500;   71,500;    0,000
344,567;  -58,000; -398,000;    0,000
344,582;   21,000; -260,500;    0,000
344,598; -102,000; -411,000;    0,000
344,613;  328,500;   18,000;    0,000
344,629;  389,000;   81,500;    0,000
344,644;  199,000;  -66,500;    0,000
344,660;   84,000; -195,500;    0,000
344,675; -135,000; -437,000;    0,000
344,691;  197,000; -101,000;    0,000
344,706;  146,500; -207,500;    0,000
344,722;  494,000;   32,500;    0,000
344,737;  392,000;    7,000;    0,000
344,753;  311,000; -158,500;    0,000
344,768;   90,500; -355,500;    0,000
344,783; 1183,000;  780,000;    0,000
344,799;  466,000;   74,000;    0,000
344,814;  216,500; -296,000;    0,000
344,830; -379,500; -682,500;    0,000
344,845;  333,000; -111,000;    0,000
344,861; -196,500; -594,500;    0,000
344,876;  210,500; -251,500;    0,000
344,892;  439,500;   68,000;    0,000
344,907;  421,000;  -62,500;    0,000
344,923;   15,500; -463,000;    0,000
344,938;  283,000; -222,500;    0,000
344,953;  124,000; -308,000;    0,000
344,969;  444,500;   18,000;    0,000
344,984;  358,500; -112,500;    0,000
345,000;  379,000;  -29,500;    0,000
345,015; -196,500; -579,500;    0,000
345,031;  368,500; -101,500;    0,000
345,046;  -24,000; -367,000;    0,000
345,061;  744,500;  149,500;    0,000
345,077;  341,500; -122,000;    0,000
345,092;  316,000; -324,000;    0,000
345,108;  302,000; -166,000;    0,000
345,123;   28,500; -443,000;    0,000
345,138;  137,500; -355,500;    0,000
345,154;  579,500;  -19,500;    0,000
345,169;  427,000;  -89,500;    0,000
345,185;  148,500; -439,000;    0,000
345,200;  335,500; -248,500;    0,000
345,215;  421,500;  -80,000;    0,000
345,231;  278,000; -213,000;    0,000
345,246;  888,000;  197,000;    0,000
345,262;  225,500; -264,500;    0,000
345,277;  225,000; -346,500;    0,000
345,292;  325,500;  -91,500;    0,000
345,308;  558,500;   41,000;    0,000
345,323;  416,000; -151,000;    0,000
345,338;  327,500; -312,500;    0,000
345,354;  169,500; -377,500;    0,000
345,369;  871,500;   62,000;    0,000
345,384;   75,500; -539,500;    0,000
345,400;  196,500; -363,000;    0,000
345,415;  483,500;  -64,500;    0,000
345,431;  561,500;   37,000;    0,000
345,446;  428,000; -176,500;    0,000
345,461;  540,500; -183,000;    0,000
345,477;  501,000; -240,500;    0,000
345,492;  522,000; -241,500;    0,000
345,507;  789,000; -104,500;    0,000
345,523; 1212,500;  343,500;    0,000
345,538;  748,500;  -68,000;    0,000
345,553;  856,000;   99,500;    0,000
345,569;  452,000;  -76,000;    0,000
345,584; 1289,000;  621,500;    0,000
345,599;  250,500; -469,500;    0,000
345,615;  332,500; -408,500;    0,000
345,630;  515,000; -177,500;    0,000
345,645;  350,500; -449,500;    0,000
345,661;  452,500; -170,500;    0,000
345,676;  493,500; -112,000;    0,000
345,691;  705,500;   39,500;    0,000
345,706;  536,000;  -87,000;    0,000
345,722; -197,500; -723,000;    0,000
345,737;  210,500; -480,500;    0,000
345,752;  478,500;  -43,500;    0,000
345,768; 1013,500;  435,500;    0,000
345,783;  237,000; -241,500;    0,000
345,798;  188,500; -310,500;    0,000
345,813; -390,000; -863,500;    0,000
345,829;  351,500; -199,000;    0,000
345,844;   75,000; -388,500;    0,000
345,859;  436,000; -213,000;    0,000
345,875;  483,000; -164,500;    0,000
345,890;  423,500; -189,000;    0,000
345,905;  730,000;  148,500;    0,000
345,920;  297,000; -351,500;    0,000
345,936;  519,000;  -79,000;    0,000
345,951;  703,000;  166,500;    0,000
345,966;   31,500; -571,000;    0,000
345,981;  949,500;  201,000;    0,000
345,997;  588,500;  -78,000;    0,000
346,012;  910,000;  137,500;    0,000
346,027;  603,500; -153,000;    0,000
346,042;  300,000; -471,500;    0,000
346,058;  309,500; -459,000;    0,000
346,073;  800,500; -208,000;    0,000
346,088;  399,000; -498,500;    0,000
346,103;  526,500; -435,500;    0,000
346,119;  506,000; -489,000;    0,000
346,134;  583,500; -429,000;    0,000
346,149; 1357,000;  196,000;    0,000
346,164;  783,000; -342,500;    0,000
346,180;  618,000; -576,000;    0,000
346,195; 1343,500;  -83,500;    0,000
346,210;  928,000; -235,500;    0,000
346,225; 1090,000; -190,500;    0,000
346,240; 1056,500; -269,500;    0,000
346,256; 1729,500;  147,000;    0,000
346,271; 2039,000;   92,000;    0,000
346,286; 2504,500; -294,000;    0,000
346,301; 3333,000; -356,500;    0,000
346,316; 4294,000; -196,000;    0,000
346,332; 4154,000; -667,500;    0,000
346,347; 4529,000; -289,500;    0,000
346,362; 3880,500; -316,000;    0,000
346,377; 4490,000; -151,500;    0,000
346,392; 6639,000; -210,500;    0,000
346,408;11168,500; -393,000;    0,000
346,423;17043,500; -216,000;    0,000
346,438;23122,500; -499,500;    0,000
346,453;28993,000;  285,000;    0,000
346,468;35007,000;  -43,500;    0,000
346,483;46386,000; -722,500;    0,000
346,499;63229,500;   24,500;    0,000
346,514;63146,500; -427,000;    0,000
346,529;63229,500;  319,500;    0,000
346,544;63146,500; -302,000;    0,000
346,559;63229,500;  443,500;    0,000
346,574;63146,500;  140,000;    0,000
346,590;63229,500; -416,500;    0,000
346,605;63146,500; -195,500;    0,000
346,620;63229,500;  200,500;    0,000
346,635;63146,500;  402,500;    0,000
346,650;63229,500; -208,000;    0,000
346,665;63146,500; -181,500;    0,000
346,680;63229,500; -231,000;    0,000
346,696;63146,500; -342,000;    0,000
346,711;63229,500; -155,000;    0,000
346,726;63146,500;   82,000;    0,000
346,741;63229,500;   -1,000;    0,000
346,756;63146,500; -196,500;    0,000
346,771;63229,500;   40,000;    0,000
346,786;63146,500; -236,000;    0,000
346,801;63229,500;  175,500;    0,000
346,817;63146,500;  -97,000;    0,000
346,832;63229,500; -108,500;    0,000
346,847;63146,500; -116,500;    0,000
346,862;63229,500; -392,000;    0,000
346,877;63146,500;  275,500;    0,000
346,892;63229,500;  -77,500;    0,000
346,907;63146,500; -154,500;    0,000
346,922;63229,500;  138,500;    0,000
346,937;63146,500; -228,000;    0,000
346,952;63229,500;  200,500;    0,000
346,967;63146,500; -317,000;    0,000
346,983;63229,500; -171,500;    0,000
346,998;63146,500; -171,000;    0,000
347,013;63229,500;  -36,500;    0,000
347,028;63146,500; -300,000;    0,000
347,043;63229,500; -341,500;    0,000
347,058;63146,500; -109,000;    0,000
347,073;63229,500; -151,000;    0,000
347,088;63146,500; -282,500;    0,000
347,103;63229,500;  244,000;    0,000
347,118;63146,500; -387,000;    0,000
347,133;63229,500;  -83,000;    0,000
347,148;63146,500; -457,000;    0,000
347,163;63229,500; -272,500;    0,000
347,178;63146,500; -917,000;    0,000
347,193;63229,500; -333,000;    0,000
347,208;63146,500; -243,000;    0,000
347,224;63229,500; -188,000;    0,000
347,239;63146,500; -200,500;    0,000
347,254;63229,500;  -78,000;    0,000
347,269;63146,500;   45,500;    0,000
347,284;63229,500; -278,000;    0,000
347,299;63146,500; -294,500;    0,000
347,314;63229,500; -206,500;    0,000
347,329;63146,500; -569,500;    0,000
347,344;63229,500;  682,500;    0,000
347,359;63146,500;  -91,500;    0,000
347,374;63229,500; -149,500;    0,000
347,389;63146,500; -112,500;    0,000
347,404;63229,500;   45,000;    0,000
347,419;63146,500; -349,000;    0,000
347,434;63229,500;  -49,000;    0,000
347,449;63146,500; -168,000;    0,000
347,464;63229,500; -146,500;    0,000
347,479;63146,500; -203,000;    0,000
347,494;63229,500; -296,500;    0,000
347,509;63146,500; -476,000;    0,000
347,524;63229,500;  190,000;    0,000
347,539;63146,500; -726,500;    0,000
347,554;63229,500;    5,000;    0,000
347,569;63146,500; -445,500;    0,000
347,584;63229,500;  265,000;    0,000
347,599;63146,500; -379,500;    0,000
347,614;63229,500; -345,500;    0,000
347,629;63146,500; -295,500;    0,000
347,644;63229,500; -183,000;    0,000
347,659;63146,500; -620,500;    0,000
347,673;63229,500; -376,000;    0,000
347,688;63146,500; -392,000;    0,000
347,703;63229,500; -350,000;    0,000
347,718;63146,500; -126,000;    0,000
347,733;63229,500; -183,500;    0,000
347,748;63146,500; -240,500;    0,000
347,763;63229,500;  563,500;    0,000
347,778;63146,500;  203,000;    0,000
347,793;63229,500; -231,500;    0,000
347,808;63146,500; -136,000;    0,000
347,823;63229,500;  559,500;    0,000
347,838;63146,500;  -66,500;    0,000
347,853;63229,500;   81,000;    0,000
347,868;63146,500;  -88,000;    0,000
347,883;63229,500; -175,000;    0,000
347,898;63146,500;   15,500;    0,000
347,912;63229,500;  -25,500;    0,000
347,927;63146,500;  -24,500;    0,000
347,942;63229,500; -273,000;    0,000
347,957;63146,500;  275,500;    0,000
347,972;63229,500; -539,500;    0,000
347,987;63146,500;  105,000;    0,000
348,002;63229,500; -354,500;    0,000
348,017;63146,500; -275,000;    0,000
348,032;63229,500; -110,500;    0,000
348,047;63146,500; -276,000;    0,000
348,061;63229,500;   81,500;    0,000
348,076;63146,500; -198,500;    0,000
348,091;63229,500; -205,500;    0,000
348,106;44466,000; -173,500;    0,000
348,121;60843,500;  231,000;    0,000
348,136; 2843,500; -190,500;    0,000
348,151; 3184,000;  -32,500;    0,000
348,166; 2237,000; -183,000;    0,000
348,180; 2651,500;   59,000;    0,000
348,195; 1905,000; -370,500;    0,000
348,210; 2208,000;  -35,500;    0,000
348,225; 1869,000; -131,500;    0,000
348,240; 1923,000; -157,500;    0,000
348,255; 1492,000; -287,500;    0,000
348,270; 1638,000; -270,500;    0,000
348,285; 1321,000; -393,000;    0,000
348,299; 1551,000;  -24,000;    0,000
348,314; 1978,500;  238,000;    0,000
348,329; 1553,500;  -77,000;    0,000
348,344; 1042,000; -428,500;    0,000
348,359; 1348,000; -213,500;    0,000
348,374; 1242,500;  -44,500;    0,000
348,388;  513,500; -651,500;    0,000
348,403; 1622,500;  285,000;    0,000
348,418; 1383,500;   30,500;    0,000
348,433;  606,000; -565,000;    0,000
348,448; 1281,500;  106,500;    0,000
348,462;  834,500; -344,000;    0,000
348,477; 1039,500; -186,000;    0,000
348,492;  686,500; -356,000;    0,000
348,507;  951,500; -295,500;    0,000
348,522;  600,500; -471,000;    0,000
348,537; 1437,500;  313,500;    0,000
348,551; 1030,000;   19,500;    0,000
348,566;  925,500; -161,000;    0,000
348,581;  845,500;  -99,000;    0,000
348,596; 1117,500;   -4,000;    0,000
348,611;  834,500; -196,500;    0,000
348,625;  661,500; -314,500;    0,000
348,640;  393,000; -503,500;    0,000
348,655;  958,000;  -22,000;    0,000
348,670; 1258,500;  386,500;    0,000
348,684;  710,000; -192,500;    0,000
348,699;  655,500; -202,500;    0,000
348,714;  699,000; -125,000;    0,000
348,729;  441,000; -467,500;    0,000
348,744;  576,500; -205,000;    0,000
348,758;  108,000; -702,500;    0,000
348,773;  574,500; -217,500;    0,000
348,788;  459,500; -234,500;    0,000
348,803;  716,000; -101,000;    0,000
348,817;  541,500; -149,500;    0,000
348,832;   80,500; -654,500;    0,000
348,847;  731,500;  -15,000;    0,000
348,862;  478,500; -296,500;    0,000
348,876;  682,000;  -50,000;    0,000
348,891;  158,500; -524,000;    0,000
348,906;  316,500; -472,500;    0,000
348,921;  379,000; -281,500;    0,000
348,935;  619,500;  -45,500;    0,000
348,950;  423,500; -280,500;    0,000
348,965;  219,000; -450,500;    0,000
348,979;  167,000; -433,500;    0,000
348,994;  221,500; -312,000;    0,000
349,009;  622,500;    4,000;    0,000
349,024;  657,000; -157,500;    0,000
349,038;  111,000; -486,500;    0,000
349,053;  419,500; -141,000;    0,000
349,068;  244,500; -295,500;    0,000
349,082;  337,500; -303,500;    0,000
349,097;  758,000;  125,000;    0,000
349,112;  121,500; -415,500;    0,000
349,126;  126,500; -420,500;    0,000
349,141;  225,500; -331,000;    0,000
349,156;  566,500;  -39,000;    0,000
349,171;  458,000;  -88,000;    0,000
349,185;  692,500;   71,000;    0,000
349,200;  854,000;  340,500;    0,000
349,215;  640,500;   79,000;    0,000
349,229;  500,500;  -71,000;    0,000
349,244;  680,500;   73,500;    0,000
349,259;  303,500; -286,500;    0,000
349,273;  602,500;   54,000;    0,000
349,288;  480,500;  -27,000;    0,000
349,303;  915,000;  397,000;    0,000
349,317; -177,500; -645,500;    0,000
349,332;  520,000;    4,500;    0,000
349,347;  118,500; -306,000;    0,000
349,361;  653,000;  106,500;    0,000
349,376;  159,500; -189,000;    0,000
349,391;   82,000; -369,000;    0,000
349,405;  -22,000; -394,000;    0,000
349,420;  698,000;  336,000;    0,000
349,435;  -26,500; -414,000;    0,000
349,449; -321,500; -814,000;    0,000
349,464;  291,000;  -90,000;    0,000
349,478;  610,500;   54,500;    0,000
349,493;   31,000; -403,500;    0,000
349,508; 1088,500;  466,000;    0,000
349,522;  506,000;   -3,500;    0,000
349,537;  583,000;  143,000;    0,000
349,552;  368,500;  -58,000;    0,000
349,566;  333,000;  -98,000;    0,000
349,581;  283,500;  -38,500;    0,000
349,595;  -12,500; -467,000;    0,000
349,610;  706,500;  306,500;    0,000
349,625;   34,000; -236,500;    0,000
349,639; -125,500; -451,500;    0,000
349,654;  643,000;  237,500;    0,000
349,668;  603,000;  221,000;    0,000
349,683;  146,000; -270,000;    0,000
349,698;  127,000; -275,500;    0,000
349,712;  485,000;   51,000;    0,000
349,727;  317,500;   27,500;    0,000
349,741;  530,000;  109,000;    0,000
349,756;  377,000;  -17,000;    0,000
349,770;  286,000;  -22,000;    0,000
349,785;  739,500;  246,000;    0,000
349,800;  170,500; -313,500;    0,000
349,814;  576,000;  125,500;    0,000
349,829;  500,000;   38,000;    0,000
349,843;  376,000; -152,000;    0,000
349,858;  296,500; -292,500;    0,000
349,872;  518,500; -172,000;    0,000
349,887;  646,500; -378,500;    0,000
349,902; 1193,000; -337,500;    0,000
349,916; 1752,500; -545,000;    0,000
349,931; 2583,000; -484,500;    0,000
349,945; 4109,000; -328,000;    0,000
349,960; 5413,500;  -21,500;    0,000
349,974; 5572,000; -301,000;    0,000
349,989; 7458,500; -110,500;    0,000
350,003;12921,000;  -87,500;    0,000
350,018;18950,500;  -38,000;    0,000
350,032;18923,500;   68,000;    0,000
350,047;12279,000;  147,500;    0,000
350,061; 5467,500; -204,500;    0,000
350,076; 2180,500;  -76,000;    0,000
350,091; 1450,000;  153,500;    0,000
350,105;  583,000; -285,000;    0,000
350,120;  672,000; -125,500;    0,000
350,134;   32,500; -578,500;    0,000
350,149;  396,000; -136,000;    0,000
350,163;  140,000; -297,500;    0,000
350,178;  568,000;  -45,000;    0,000
350,192;  356,000;  -98,000;    0,000
350,207;   81,000; -288,500;    0,000
350,221;  162,000; -289,000;    0,000
350,236;  151,500; -215,000;    0,000
350,250;  337,000;  -16,000;    0,000
350,265;  675,500;  234,500;    0,000
350,279;  183,500; -300,500;    0,000
350,293;  346,500; -155,500;    0,000
350,308;  532,000;  121,500;    0,000
350,322;  541,000;  161,000;    0,000
350,337;  212,000; -201,000;    0,000
350,351; -127,500; -522,500;    0,000
350,366;  420,500;  174,000;    0,000
350,380;   42,500; -285,500;    0,000
350,395;  187,500; -218,000;    0,000
350,409;  133,500; -208,000;    0,000
350,424;  519,000;  201,500;    0,000
350,438;   -5,000; -339,500;    0,000
350,453;   58,000; -338,000;    0,000
350,467;  -75,500; -411,000;    0,000
350,481;  157,500; -155,000;    0,000
350,496;   49,000; -258,500;    0,000
350,510; -145,500; -524,000;    0,000
350,525;  558,500;  166,000;    0,000
350,539; -186,500; -544,000;    0,000
350,554;   44,000; -173,000;    0,000
350,568;  408,500;  171,500;    0,000
350,583;  136,000; -100,500;    0,000
350,597;  216,500;    2,500;    0,000
350,611;  126,000; -107,500;    0,000
350,626; -139,000; -396,000;    0,000
350,640;   69,000; -192,500;    0,000
350,655;  -90,000; -371,500;    0,000
350,669;  198,000;  -32,000;    0,000
350,683;  -99,000; -449,000;    0,000
350,698;  556,000;  276,500;    0,000
350,712;  355,500;   39,500;    0,000
350,727;   60,500; -196,000;    0,000
350,741; -426,000; -659,000;    0,000
350,755;  -77,000; -325,500;    0,000
350,770;  128,000;  -58,000;    0,000
350,784;  -26,000; -320,500;    0,000
350,799;   25,000; -173,500;    0,000
350,813;  611,500;  273,500;    0,000
350,827;  158,500;  -93,000;    0,000
350,842;  242,500;  -65,000;    0,000
350,856;  273,000;  100,500;    0,000
350,870; -207,000; -427,000;    0,000
350,885;  608,500;  308,500;    0,000
350,899;   67,000; -183,500;    0,000
350,914;  700,000;  368,500;    0,000
350,928;  -75,000; -333,000;    0,000
350,942;  283,500;   42,500;    0,000
350,957;   86,000; -130,000;    0,000
350,971;  258,500;   -7,000;    0,000
350,985;   71,500; -150,000;    0,000
351,000; -109,500; -259,500;    0,000
351,014;  524,500;  311,000;    0,000
351,028;  220,000;    3,500;    0,000
351,043;   75,000; -113,000;    0,000
351,057;   94,500; -120,500;    0,000
351,071;  -10,000; -208,000;    0,000
351,086; -245,000; -440,000;    0,000
351,100;  262,500;   36,500;    0,000
351,114;   -0,500; -305,000;    0,000
351,129;  291,000;  -16,500;    0,000
351,143;  624,000;  320,500;    0,000
351,157;  171,000;  -82,500;    0,000
351,172; -105,000; -256,000;    0,000
351,186;  258,000;   64,000;    0,000
351,200; -283,500; -424,500;    0,000
351,215;  296,500;   32,000;    0,000
351,229; -158,500; -318,500;    0,000
351,243;  222,000;   33,500;    0,000
351,257;  -44,000; -264,000;    0,000
351,272;  285,500;   45,500;    0,000
351,286;  215,000;  -50,000;    0,000
351,300;  433,500;  177,500;    0,000
351,315;  166,000;  -80,500;    0,000
351,329;  297,500;   34,000;    0,000
351,343; -130,000; -315,500;    0,000
351,357;  182,000;  -39,500;    0,000
351,372;  420,500;  135,500;    0,000
351,386;  143,500; -131,500;    0,000
351,400;  144,500;  -39,000;    0,000
351,415;  157,500;   13,000;    0,000
351,429; -228,000; -481,000;    0,000
351,443;  309,500;  192,500;    0,000
351,457;  495,000;  238,000;    0,000
351,472;  232,000;  -30,500;    0,000
351,486;  441,500;  142,500;    0,000
351,500;  -25,500; -267,500;    0,000
351,514; -242,000; -402,000;    0,000
351,529;  113,000; -168,000;    0,000
351,543;   13,000; -358,500;    0,000
351,557;  272,000; -110,000;    0,000
351,571; -241,000; -454,000;    0,000
351,586;   33,500; -205,000;    0,000
351,600; -312,500; -545,500;    0,000
351,614;  287,000;   95,500;    0,000
351,628; -203,000; -410,000;    0,000
351,643;  410,000;  118,000;    0,000
351,657;  -82,000; -259,000;    0,000
351,671;  -79,500; -367,000;    0,000
351,685; -120,500; -402,500;    0,000
351,699; -338,000; -522,000;    0,000
351,714; -268,000; -406,500;    0,000
351,728; -325,500; -411,500;    0,000
351,742; -145,000; -290,500;    0,000
351,756;  216,500;   53,500;    0,000
351,770;   79,000;  -99,000;    0,000
351,785;  360,500;  144,500;    0,000
351,799;  202,500;   22,000;    0,000
351,813;   43,000; -221,500;    0,000
351,827;  312,500;  153,500;    0,000
351,841; -278,000; -486,500;    0,000
351,856; -358,000; -569,000;    0,000
351,870;  302,500;   32,000;    0,000
351,884;  320,500;  110,000;    0,000
351,898;  239,000;   81,500;    0,000
351,912;  161,000;   14,500;    0,000
351,926; -240,500; -482,500;    0,000
351,941;  316,000;  105,000;    0,000
351,955;  114,000;  -16,500;    0,000
351,969;  201,500;  -69,500;    0,000
351,983;  643,000;  409,000;    0,000
351,997;   17,000; -111,500;    0,000
352,011;   12,500; -159,000;    0,000
352,026;  -19,000; -241,500;    0,000
352,040;  214,500; -149,000;    0,000
352,054;   43,500; -214,500;    0,000
352,068;  395,000;  128,000;    0,000
352,082;   -7,000; -224,500;    0,000
352,096;  183,000;   63,000;    0,000
352,110;  352,500;  145,500;    0,000
352,125;   65,500; -166,500;    0,000
352,139;    0,500; -129,000;    0,000
352,153;  428,000;  261,500;    0,000
352,167;  339,500;  145,500;    0,000
352,181;  -52,500; -242,500;    0,000
352,195;  806,000;  598,500;    0,000
352,209;  259,500;    8,500;    0,000
352,223; -456,000; -657,500;    0,000
352,237;  580,500;  380,500;    0,000
352,252; -156,500; -278,500;    0,000
352,266;   66,500; -136,000;    0,000
352,280;   86,500;  -79,000;    0,000
352,294;  161,500;  -60,000;    0,000
352,308; -190,500; -382,000;    0,000
352,322; -219,500; -354,500;    0,000
352,336;   97,500;  -98,500;    0,000
352,350;  -20,000; -308,500;    0,000
352,364;   55,500; -125,500;    0,000
352,378;  -31,500; -319,500;    0,000
352,393;  387,000;  114,500;    0,000
352,407;  421,000;  140,500;    0,000
352,421;  606,000;  183,500;    0,000
352,435;  283,000; -197,000;    0,000
352,449;  432,000;  150,000;    0,000
352,463;  396,000;  101,000;    0,000
352,477; -445,500; -662,000;    0,000
352,491;  130,500; -105,500;    0,000
352,505;  -86,500; -298,000;    0,000
352,519; -112,500; -324,000;    0,000
352,533;  -92,000; -223,000;    0,000
352,547;  211,000;  -44,000;    0,000
352,561;  314,500;   42,000;    0,000
352,575; -191,000; -588,500;    0,000
352,589;  240,500; -104,500;    0,000
352,603; -154,500; -421,500;    0,000
352,617;  575,500;  282,000;    0,000
352,631;  599,500;  378,500;    0,000
352,645;  196,500;    2,500;    0,000
352,659;  140,000;  -81,500;    0,000
352,674; -108,500; -231,000;    0,000
352,688;   80,500; -147,000;    0,000
352,702;   80,500;  -10,000;    0,000
352,716;  -16,000; -232,000;    0,000
352,730;  235,000;  -45,000;    0,000
352,744;   87,500;   18,500;    0,000
352,758;  -39,500; -149,500;    0,000
352,772;  193,500;  -24,500;    0,000
352,786;   13,000;  -97,000;    0,000
352,800; -405,000; -641,500;    0,000
352,814; -282,000; -447,000;    0,000
352,828;  306,500;   84,000;    0,000
352,842; -110,000; -310,500;    0,000
352,856; -104,000; -300,000;    0,000
352,870;  -70,500; -186,000;    0,000
352,884;  321,500;  206,500;    0,000
352,898;  -87,000; -248,500;    0,000
352,912;  338,500;   93,500;    0,000
352,925;  496,000;  261,500;    0,000
352,939; -255,500; -446,000;    0,000
352,953;  205,500;   25,000;    0,000
352,967;  126,000;  -91,500;    0,000
352,981; -119,500; -280,500;    0,000
352,995;   69,500; -162,500;    0,000
353,009;  419,000;  239,500;    0,000
353,023;  230,000;   71,000;    0,000
353,037;   63,000;  -64,000;    0,000
353,051;  122,500;   27,500;    0,000
353,065;  -89,000; -267,500;    0,000
353,079;   43,000; -127,500;    0,000
353,093; -332,000; -535,500;    0,000
353,107;  -27,000; -190,000;    0,000
353,121;   35,000; -133,500;    0,000
353,135;  215,000;   39,000;    0,000
353,149;  -12,500; -101,000;    0,000
353,163; -384,500; -585,000;    0,000
353,177;  215,500;   -2,000;    0,000
353,190;  103,000;  -54,000;    0,000
353,204; -137,500; -293,500;    0,000
353,218;   96,500; -122,500;    0,000
353,232;  -64,000; -227,000;    0,000
353,246;  315,000;  170,500;    0,000
353,260;  179,500;  -34,500;    0,000
353,274;   94,500; -105,000;    0,000
353,288;   14,500; -125,500;    0,000
353,302;  161,500;  -30,500;    0,000
353,316; -373,500; -530,000;    0,000
353,330;  196,000;   34,500;    0,000
353,343;   96,000; -116,500;    0,000
353,357;  257,000;   27,000;    0,000
353,371;  500,500;  281,500;    0,000
353,385;  291,500;   76,500;    0,000
353,399;   65,000; -105,000;    0,000
353,413;  401,500;  212,500;    0,000
353,427;  -17,500; -260,000;    0,000
353,441;  -66,500; -214,500;    0,000
353,455;  -78,000; -285,000;    0,000
353,468; -509,000; -669,500;    0,000
353,482;   47,000; -151,000;    0,000
353,496;   93,000; -201,000;    0,000
353,510;   39,500; -139,500;    0,000
353,524;  278,500;  -45,500;    0,000
353,538; -279,500; -479,000;    0,000
353,552;   81,000; -112,000;    0,000
353,565;  647,500;  449,000;    0,000
353,579;  502,000;  208,000;    0,000
353,593;  -35,000; -255,000;    0,000
353,607;  297,500;  -90,000;    0,000
353,621; -239,500; -463,000;    0,000
353,635;   23,000;  -91,000;    0,000
353,648;  148,000; -111,000;    0,000
353,662; -331,000; -597,000;    0,000
353,676;  307,000;  179,000;    0,000
353,690; -164,000; -319,000;    0,000
353,704;   38,500; -144,000;    0,000
353,718;   32,500; -209,000;    0,000
353,731;  -26,500; -205,500;    0,000
353,745;  310,000;  206,500;    0,000
353,759; -489,000; -648,500;    0,000
353,773;  162,000; -161,500;    0,000
353,787;  149,000;  -12,500;    0,000
353,800; -149,500; -258,000;    0,000
353,814;  307,000;  216,000;    0,000
353,828;  167,000;   10,500;    0,000
353,842;    0,000; -112,000;    0,000
353,856;  -78,000; -293,500;    0,000
353,869; -182,500; -373,500;    0,000
353,883;  176,000;  -15,000;    0,000
353,897; -112,500; -271,000;    0,000
353,911; -262,500; -483,000;    0,000
353,924; -168,000; -277,000;    0,000
353,938; -126,500; -412,000;    0,000
353,952; -245,000; -429,000;    0,000
353,966; -364,000; -502,000;    0,000
353,980; -334,500; -418,000;    0,000
353,993;  268,500;  174,000;    0,000
354,007;  127,000;   27,000;    0,000
354,021; -159,000; -220,000;    0,000
354,035;   97,000;  -80,500;    0,000
354,048;  109,000;   -8,500;    0,000
354,062; -204,000; -367,500;    0,000
354,076;  -34,000; -173,000;    0,000
354,090;  432,500;  242,000;    0,000
354,103;  -18,000; -149,500;    0,000
354,117;  328,500;  104,500;    0,000
354,131;  185,500;  -25,000;    0,000
354,145; -118,000; -234,000;    0,000
354,158;  -18,500; -173,500;    0,000
354,172; -132,000; -474,000;    0,000
354,186; -438,500; -529,000;    0,000
354,199;  106,000;  -75,500;    0,000
354,213;   31,500; -175,500;    0,000
354,227;  195,500;   20,000;    0,000
354,241;   53,500; -247,000;    0,000
354,254;  207,000;   -8,000;    0,000
354,268;  151,500;  -15,000;    0,000
354,282;  218,500;  102,000;    0,000
354,295;  287,000;   95,000;    0,000
354,309; -164,500; -329,000;    0,000
354,323;  122,000;  -84,000;    0,000
354,336;  -72,000; -205,500;    0,000
354,350;  -60,500; -190,500;    0,000
354,364; -717,500; -979,500;    0,000
354,378;  -71,500; -302,500;    0,000
354,391; -216,000; -433,500;    0,000
354,405;  110,500;  -41,000;    0,000
354,419;  187,000;   78,500;    0,000
354,432;   42,500;  -99,000;    0,000
354,446;   65,500; -108,500;    0,000
354,460; -163,500; -330,000;    0,000
354,473;  199,000;   27,000;    0,000
354,487; -296,000; -499,000;    0,000
354,501;   76,000;  -67,000;    0,000
354,514; -107,000; -231,500;    0,000
354,528;   28,500;  -41,000;    0,000
354,542;   83,000; -155,500;    0,000
354,555;  489,000;  326,500;    0,000
354,569;  -22,500; -147,000;    0,000
354,582;  189,500;   81,000;    0,000
354,596;  237,500;  171,000;    0,000
354,610;  -13,500; -248,000;    0,000
354,623;  280,000;   90,000;    0,000
354,637;    4,500; -124,500;    0,000
354,651;  165,500;  -75,500;    0,000
354,664;  169,000;    1,500;    0,000
354,678;  423,000;  121,000;    0,000
354,692;   41,000; -165,000;    0,000
354,705;  245,500;   30,500;    0,000
354,719;  653,000;  520,000;    0,000
354,732;   72,000;  -77,500;    0,000
354,746;   19,500; -112,500;    0,000
354,760;  306,000;   98,500;    0,000
354,773; -314,000; -406,000;    0,000
354,787;   89,000; -115,500;    0,000
354,800;  278,000;  129,000;    0,000
354,814;   68,500; -218,500;    0,000
354,828;  219,000;  -16,000;    0,000
354,841; -329,500; -487,500;    0,000
354,855;  109,500; -106,000;    0,000
354,868; -185,500; -342,000;    0,000
354,882;    8,000; -142,500;    0,000
354,896;  195,000;   41,500;    0,000
354,909;  281,500;  177,000;    0,000
354,923; -370,000; -489,000;    0,000
354,936;  489,500;  228,500;    0,000
354,950; -251,500; -431,500;    0,000
354,963; -114,500; -300,500;    0,000
354,977;   19,000; -267,500;    0,000
354,990; -322,000; -406,500;    0,000
355,004;  161,000;   41,000;    0,000
355,018;  356,500;  189,000;    0,000
355,031;  393,500;  123,500;    0,000
355,045;   72,500; -157,000;    0,000
355,058;  376,500;   17,500;    0,000
355,072;  262,500;  -72,500;    0,000
355,085;  573,000;  270,000;    0,000
355,099;  153,500;  -53,500;    0,000
355,112; -166,000; -377,500;    0,000
355,126;  336,500;  107,500;    0,000
355,139;   21,000; -203,500;    0,000
355,153;  189,500;   45,500;    0,000
355,167; -156,000; -236,000;    0,000
355,180;  320,000;  174,000;    0,000
355,194; -204,000; -374,500;    0,000
355,207;  221,500;  -69,000;    0,000
355,221; -432,500; -581,500;    0,000
355,234;  -19,000; -225,000;    0,000
355,248;   54,500; -144,500;    0,000
355,261;  131,000; -211,500;    0,000
355,275;  440,000;  114,000;    0,000
355,288; -172,000; -443,000;    0,000
355,302;  299,000;   56,500;    0,000
355,315;  243,000;  -19,500;    0,000
355,329;  609,000;  301,000;    0,000
355,342;  425,000;  156,000;    0,000
355,356;  171,500; -304,500;    0,000
355,369;  285,500; -439,000;    0,000
355,383;  642,000; -215,000;    0,000
355,396; 1095,500;  315,000;    0,000
355,409;  687,000; -150,000;    0,000
355,423;  915,000; -217,500;    0,000
355,436; 1948,000; -226,000;    0,000
355,450; 3097,000; -654,000;    0,000
355,463; 5477,000; -252,500;    0,000
355,477;10427,500;   57,500;    0,000
355,490;18502,000; -158,000;    0,000
355,504;22290,000;  269,000;    0,000
355,517;16584,000;  103,500;    0,000
355,531; 8093,500; -139,500;    0,000
355,544; 3466,500; -258,500;    0,000
355,557; 1536,000; -138,000;    0,000
355,571;   99,500; -581,000;    0,000
355,584;  297,000; -219,500;    0,000
355,598;  171,500; -206,000;    0,000
355,611;  252,500;   -9,500;    0,000
355,625;  315,500;  -76,000;    0,000
355,638;  208,500; -127,500;    0,000
355,652;  -23,000; -321,000;    0,000
355,665; -279,000; -468,000;    0,000
355,678;  402,500;  179,000;    0,000
355,692;  -45,500; -271,500;    0,000
355,705;  238,000;  -75,000;    0,000
355,719;   65,500; -255,500;    0,000
355,732;  215,000;   -3,000;    0,000
355,745;  266,500;  -58,000;    0,000
355,759;  -48,500; -332,000;    0,000
355,772;  115,000; -146,500;    0,000
355,786;  325,500;  112,000;    0,000
355,799;  312,500;  133,500;    0,000
355,812; -312,000; -476,000;    0,000
355,826;  427,000;  234,500;    0,000
355,839; -183,000; -462,500;    0,000
355,853;  -29,500; -100,500;    0,000
355,866;    9,500; -150,500;    0,000
355,879; -161,000; -320,000;    0,000
355,893;  468,000;  208,000;    0,000
355,906;   59,500; -128,500;    0,000
355,919; -260,000; -462,500;    0,000
355,933;   39,500;  -35,500;    0,000
355,946;  419,000;  151,500;    0,000
355,959;  201,000;   68,000;    0,000
355,973;  401,500;  228,500;    0,000
355,986;   84,000;  -60,500;    0,000
356,000;  267,500;  107,000;    0,000
356,013; -422,500; -545,500;    0,000
356,026;  215,000;   -2,500;    0,000
356,040;  328,000;  135,000;    0,000
356,053;   95,500; -116,500;    0,000
356,066;   11,500; -141,500;    0,000
356,080;  192,500;   26,000;    0,000
356,093;  127,500;  -73,500;    0,000
356,106;  237,500;   57,500;    0,000
356,120;  -87,000; -150,500;    0,000
356,133; -141,000; -319,000;    0,000
356,146;  332,000;  179,500;    0,000
356,160;  356,000;  171,000;    0,000
356,173; -324,500; -419,500;    0,000
356,186;  579,000;  369,500;    0,000
356,199;   76,500;  -37,000;    0,000
356,213;  119,500;  -13,500;    0,000
356,226;  231,000;   66,500;    0,000
356,239;  487,000;  348,000;    0,000
356,253;  186,500;  124,500;    0,000
356,266;   37,500; -149,000;    0,000
356,279; -236,500; -272,000;    0,000
356,293;  158,000;   -5,000;    0,000
356,306; -337,500; -524,000;    0,000
356,319; -165,500; -330,000;    0,000
356,332;  480,000;  286,000;    0,000
356,346;  201,500;  115,000;    0,000
356,359;  295,000;  185,000;    0,000
356,372;  240,000;  -25,000;    0,000
356,385;  -69,500; -196,000;    0,000
356,399;  259,500;   13,000;    0,000
356,412;  228,000;  134,500;    0,000
356,425;  402,000;  176,500;    0,000
356,439;  644,000;  500,000;    0,000
356,452;  420,500;  268,500;    0,000
356,465;  475,000;  332,500;    0,000
356,478;  198,500;   46,000;    0,000
356,492; -455,000; -560,000;    0,000
356,505;  -22,500; -203,000;    0,000
356,518;   62,500;  -64,000;    0,000
356,531;  -21,000; -203,000;    0,000
356,544;  147,500;   68,000;    0,000
356,558;  -99,000; -325,500;    0,000
356,571; -196,000; -324,000;    0,000
356,584; -164,000; -259,500;    0,000
356,597;  -66,500; -163,000;    0,000
356,611; -131,500; -232,000;    0,000
356,624; -169,500; -313,000;    0,000
356,637;  386,500;  217,000;    0,000
356,650;  -87,000; -175,000;    0,000
356,663;  241,500;  177,000;    0,000
356,677;  203,500;   71,000;    0,000
356,690;  265,000;  108,000;    0,000
356,703;   15,500;  -71,500;    0,000
356,716;  -68,000; -248,500;    0,000
356,729; -261,000; -469,000;    0,000
356,743;  517,000;  407,000;    0,000
356,756; -274,500; -391,000;    0,000
356,769;   27,000; -156,000;    0,000
356,782; -181,000; -358,500;    0,000
356,795;  523,000;  322,500;    0,000
356,809;  438,500;  284,000;    0,000
356,822;  177,500;   59,000;    0,000
356,835; -325,500; -381,000;    0,000
356,848;   92,000;  -18,500;    0,000
356,861;  198,500;   43,000;    0,000
356,874;  -92,000; -199,500;    0,000
356,888;  -96,000; -251,500;    0,000
356,901;  429,000;  244,000;    0,000
356,914;  434,000;  268,500;    0,000
356,927;  250,500;   84,000;    0,000
356,940; -127,000; -355,000;    0,000
356,953;  -55,500; -220,000;    0,000
356,967;  189,500;  176,000;    0,000
356,980;  -16,500;  -57,000;    0,000
356,993; -361,500; -427,500;    0,000
357,006;   67,000;  -92,500;    0,000
357,019; -370,500; -549,000;    0,000
357,032; -196,000; -309,500;    0,000
357,045; -403,000; -442,500;    0,000
357,058;  557,500;  423,000;    0,000
357,072;  -85,500;  -92,500;    0,000
357,085; -277,000; -329,500;    0,000
357,098;  285,000;  102,000;    0,000
357,111;  177,000;   88,500;    0,000
357,124;   63,000;    0,500;    0,000
357,137;  -67,000;  -99,500;    0,000
357,150;  229,500;   88,000;    0,000
357,163; -245,000; -431,500;    0,000
357,176;  170,500;    7,000;    0,000
357,190; -367,000; -557,000;    0,000
357,203; -361,500; -509,000;    0,000
357,216;   81,000;  -52,500;    0,000
357,229;  195,500;   93,000;    0,000
357,242;  -45,000; -189,500;    0,000
357,255; -366,500; -474,000;    0,000
357,268; -185,000; -322,000;    0,000
357,281;  158,500;   -7,500;    0,000
357,294; -258,000; -405,500;    0,000
357,307;  234,500;  166,000;    0,000
357,320;  144,000;   12,000;    0,000
357,333;  321,500;  166,000;    0,000
357,347;   35,500; -130,000;    0,000
357,360;  216,000;   58,000;    0,000
357,373;  192,500;   48,000;    0,000
357,386; -182,000; -245,000;    0,000
357,399;   84,000;  -14,000;    0,000
357,412; -321,500; -406,000;    0,000
357,425; -345,500; -548,500;    0,000
357,438; -289,000; -396,500;    0,000
357,451;  228,500;  134,000;    0,000
357,464; -147,000; -316,500;    0,000
357,477;  316,000;  171,000;    0,000
357,490;  193,000;  100,500;    0,000
357,503; -182,000; -301,500;    0,000
357,516;  -99,000; -242,000;    0,000
357,529;  152,000; -111,500;    0,000
357,542; -203,000; -354,500;    0,000
357,555;   78,000;  -81,000;    0,000
357,568;   -2,000; -160,000;    0,000
357,581;   13,000; -201,500;    0,000
357,594; -258,000; -396,000;    0,000
357,607;  198,000;   42,500;    0,000
357,620; -204,000; -383,500;    0,000
357,633;  -67,500; -230,000;    0,000
357,646; -114,500; -252,000;    0,000
357,659;  322,500;   46,000;    0,000
357,672;  426,000;  147,000;    0,000
357,685;  662,500;  338,000;    0,000
357,698;   94,500; -200,000;    0,000
357,711;  120,000; -300,500;    0,000
357,724;  240,500; -133,500;    0,000
357,737;  455,500;  218,000;    0,000
357,750;  380,000;  123,000;    0,000
357,763;  -11,500; -155,500;    0,000
357,776; -116,000; -209,500;    0,000
357,789;   92,500;  -79,000;    0,000
357,802;   71,500; -119,000;    0,000
357,815;  -75,500; -190,000;    0,000
357,828; -209,500; -345,000;    0,000
357,841; -431,500; -487,000;    0,000
357,854;  237,500;   76,500;    0,000
357,867;  -46,500; -140,000;    0,000
357,880; -249,500; -403,000;    0,000
357,893;  423,500;  280,500;    0,000
357,906;   43,500;  -54,000;    0,000
357,919;  -39,000; -224,000;    0,000
357,931; -260,000; -342,500;    0,000
357,944;  225,000;  101,500;    0,000
357,957; -236,000; -415,000;    0,000
357,970;  120,500;  -62,000;    0,000
357,983;  -99,500; -276,000;    0,000
357,996; -180,500; -332,500;    0,000
358,009;  514,500;  368,500;    0,000
358,022;  300,500;  156,000;    0,000
358,035;  107,500;   83,500;    0,000
358,048;  519,500;  333,000;    0,000
358,061; -316,000; -441,500;    0,000
358,074;  -97,000; -180,000;    0,000
358,086;  -58,500; -239,500;    0,000
358,099;    1,000; -277,500;    0,000
358,112; -299,500; -348,000;    0,000
358,125;  588,500;  358,000;    0,000
358,138;  191,500;   26,500;    0,000
358,151;  524,500;  275,000;    0,000
358,164;  366,500;  168,000;    0,000
358,177;  375,500;  115,000;    0,000
358,190; -395,500; -574,000;    0,000
358,202;  -18,000; -157,000;    0,000
358,215; -251,000; -406,000;    0,000
358,228;  -23,000; -304,500;    0,000
358,241;  -75,500; -289,000;    0,000
358,254; -185,000; -339,500;    0,000
358,267; -282,000; -438,500;    0,000
358,280;  446,000;  233,500;    0,000
358,293; -209,500; -450,500;    0,000
358,305;  393,500;  104,000;    0,000
358,318;  -69,500; -348,000;    0,000
358,331;   12,500; -159,500;    0,000
358,344;  -76,000; -246,500;    0,000
358,357;  394,000;  120,500;    0,000
358,370;  150,500;  -71,500;    0,000
358,382; -162,500; -522,000;    0,000
358,395;   62,000;  -76,000;    0,000
358,408;  144,500;   34,500;    0,000
358,421; -151,000; -276,000;    0,000
358,434;  149,500;    9,000;    0,000
358,447;  106,500;  -28,000;    0,000
358,459; -210,500; -289,500;    0,000
358,472;  120,500;   41,000;    0,000
358,485; -213,000; -465,000;    0,000
358,498; -503,000; -635,000;    0,000
358,511;  -16,000; -205,500;    0,000
358,523;  373,000;  144,000;    0,000
358,536;  289,500;  183,500;    0,000
358,549;  -49,500; -242,000;    0,000
358,562; -196,000; -406,500;    0,000
358,575; -249,000; -392,000;    0,000
358,587;  281,000;  124,500;    0,000
358,600; -313,000; -502,500;    0,000
358,613;    9,500; -129,000;    0,000
358,626; -104,000; -333,500;    0,000
358,639;  -94,000; -291,500;    0,000
358,651;  208,500;   52,000;    0,000
358,664; -169,000; -238,500;    0,000
358,677;  -73,500; -202,500;    0,000
358,690;   -2,500; -181,000;    0,000
358,702;    7,000;  -68,000;    0,000
358,715;  144,000;   29,000;    0,000
358,728; -131,500; -290,500;    0,000
358,741;  135,000;  -31,500;    0,000
358,753;  285,500;   96,000;    0,000
358,766;  192,000;  -19,000;    0,000
358,779;  336,000;  229,500;    0,000
358,792;  -40,000; -198,500;    0,000
358,804; -248,500; -439,000;    0,000
358,817;  169,000;  -17,500;    0,000
358,830;  -69,000; -261,500;    0,000
358,843;  223,500;   -9,500;    0,000
358,855;  -76,000; -199,500;    0,000
358,868;  281,000;   52,500;    0,000
358,881; -270,500; -413,000;    0,000
358,894;  280,000;   75,000;    0,000
358,906;  -40,500; -241,000;    0,000
358,919;   84,500;  -71,000;    0,000
358,932;   67,500;  -75,000;    0,000
358,944;  -83,500; -336,000;    0,000
358,957;  -28,000; -182,000;    0,000
358,970; -249,500; -467,000;    0,000
358,983;  -43,500; -150,500;    0,000
358,995;  177,000;  -37,500;    0,000
359,008;   35,500; -178,500;    0,000
359,021;  200,500; -153,500;    0,000
359,033;   56,000; -205,000;    0,000
359,046;  149,000;  -95,500;    0,000
359,059;  -27,500; -173,000;    0,000
359,071;  473,000;  306,500;    0,000
359,084;   98,000; -108,000;    0,000
359,097;   28,500; -186,000;    0,000
359,109;   59,500; -213,000;    0,000
359,122; -606,500; -800,500;    0,000
359,135; -267,500; -445,000;    0,000
359,147;  347,500;  134,000;    0,000
359,160; -461,500; -631,500;    0,000
359,173;  474,500;  266,500;    0,000
359,185;   52,000; -151,500;    0,000
359,198;  150,500; -104,000;    0,000
359,211; -220,000; -336,000;    0,000
359,223;  -77,500; -247,000;    0,000
359,236;  -36,000; -333,000;    0,000
359,249;  376,500;   82,000;    0,000
359,261;  310,500;  136,500;    0,000
359,274;  371,500;  127,500;    0,000
359,287;  245,500;   67,500;    0,000
359,299;  171,500; -151,000;    0,000
359,312; -259,500; -473,500;    0,000
359,324;  124,000; -134,000;    0,000
359,337;  202,500;  -18,500;    0,000
359,350;  -97,500; -263,500;    0,000
359,362; -267,500; -471,500;    0,000
359,375;  343,500;  151,000;    0,000
359,388;  362,000;  193,500;    0,000
359,400; -160,000; -346,500;    0,000
359,413;   18,500; -265,000;    0,000
359,425;  337,500;  137,000;    0,000
359,438;  -34,500; -266,000;    0,000
359,451; -262,500; -567,500;    0,000
359,463;  -35,000; -299,500;    0,000
359,476;  535,500;  273,500;    0,000
359,488; -245,000; -468,500;    0,000
359,501;  573,000;  377,500;    0,000
359,514; -290,000; -501,000;    0,000
359,526;  361,000;   78,000;    0,000
359,539;  222,500;  -24,500;    0,000
359,551;  403,000;   99,500;    0,000
359,564;    7,500; -319,500;    0,000
359,576;  222,500;  -88,500;    0,000
359,589; -152,500; -449,000;    0,000
359,602;  788,000;  354,500;    0,000
359,614;  217,500; -109,500;    0,000
359,627;   63,500; -203,000;    0,000
359,639;  783,000;  507,500;    0,000
359,652;  248,500;  -80,500;    0,000
359,664;  -94,000; -438,000;    0,000
359,677;  316,000;   93,000;    0,000
359,689;  153,500; -106,000;    0,000
359,702;  360,000;   -1,500;    0,000
359,714;  158,000; -117,500;    0,000
359,727;   40,500; -228,500;    0,000
359,740;  198,000; -100,500;    0,000
359,752; -112,500; -543,500;    0,000
359,765;  116,000;  -31,000;    0,000
359,777;  465,500;   41,000;    0,000
359,790; -308,000; -669,500;    0,000
359,802;  456,500;   49,500;    0,000
359,815;  363,000;   28,000;    0,000
359,827;  255,500;  -69,500;    0,000
359,840;  400,000;   82,500;    0,000
359,852;  259,500; -162,000;    0,000
359,865;  748,000;  324,500;    0,000
359,877;  246,000;  -70,000;    0,000
359,890;  295,500; -106,000;    0,000
359,902;  137,500; -364,000;    0,000
359,915;  596,500;  137,000;    0,000
359,927;  476,500;   50,000;    0,000
359,940;  244,000; -251,000;    0,000
359,952;  284,500; -119,500;    0,000
359,965; -118,500; -577,500;    0,000
359,977;  355,500;  -40,500;    0,000
359,990;  642,500;  253,500;    0,000
360,002;   36,500; -387,500;    0,000
360,015;   -0,500; -331,000;    0,000
360,027; -228,000; -526,000;    0,000
360,039;  631,000;  226,500;    0,000
360,052;  770,000;  410,500;    0,000
360,064;  437,000;  129,000;    0,000
360,077;  408,000;  116,500;    0,000
360,089;  116,000; -229,000;    0,000
360,102; -151,000; -433,000;    0,000
360,114;  211,000; -139,000;    0,000
360,127;   36,000; -310,000;    0,000
360,139;  336,000; -182,000;    0,000
360,151;  507,500;   98,500;    0,000
360,164;   48,500; -474,000;    0,000
360,176;  623,000;  183,500;    0,000
360,189;    9,000; -345,000;    0,000
360,201;  122,500; -220,000;    0,000
360,214;   22,000; -333,000;    0,000
360,226;  119,500; -268,500;    0,000
360,238;  305,500;  -72,500;    0,000
360,251;  170,000; -195,500;    0,000
360,263;  474,500;  177,000;    0,000
360,276;  332,500; -137,000;    0,000
360,288;  456,500;   58,500;    0,000
360,301;  173,000; -216,500;    0,000
360,313;   96,000; -251,000;    0,000
360,325;  157,000; -298,500;    0,000
360,338;  304,500;  -53,000;    0,000
360,350; -143,500; -590,000;    0,000
360,362;   72,500; -346,500;    0,000
360,375;  306,500;  -52,000;    0,000
360,387;  232,500; -184,500;    0,000
360,400;  162,500; -311,000;    0,000
360,412;  -48,500; -443,000;    0,000
360,424;  631,000;  123,500;    0,000
360,437;   83,000; -374,000;    0,000
360,449;  302,500;  -62,500;    0,000
360,461;  156,000; -304,500;    0,000
360,474;  443,500;   -4,000;    0,000
360,486;  559,500;   19,500;    0,000
360,499;   48,000; -387,500;    0,000
360,511;  163,500; -228,500;    0,000
360,523;  734,500;  230,500;    0,000
360,536;  323,500; -193,500;    0,000
360,548;  528,500;  -22,500;    0,000
360,560;   47,000; -552,000;    0,000
360,573;  832,000;   64,500;    0,000
360,585;  274,000; -350,000;    0,000
360,597;  523,000; -172,000;    0,000
360,610;  550,000; -172,500;    0,000
360,622;  733,000;  -43,000;    0,000
360,634;  731,000;   10,000;    0,000
360,647;  655,500;  -95,000;    0,000
360,659;  340,500; -364,500;    0,000
360,671;  991,500;  136,500;    0,000
360,684;  957,500;   67,000;    0,000
360,696;  777,000; -314,000;    0,000
360,708; 1224,000;  -57,000;    0,000
360,720; 2002,500;  261,500;    0,000
360,733; 2175,500; -104,000;    0,000
360,745; 2428,000;  -78,000;    0,000
360,757; 2613,500; -103,000;    0,000
360,770; 2906,500;  185,000;    0,000
360,782; 2426,500; -179,500;    0,000
360,794; 2460,500;  108,000;    0,000
360,807; 2358,000;  -90,000;    0,000
360,819; 2986,500;   15,000;    0,000
360,831; 3628,000; -357,500;    0,000
360,843; 6273,000;  248,000;    0,000
360,856; 9081,000;  179,500;    0,000
360,868;11426,500; -294,000;    0,000
360,880;14411,500;  114,000;    0,000
360,892;16602,500;  -79,000;    0,000
360,905;18497,500; -184,000;    0,000
360,917;21432,000; -266,500;    0,000
360,929;30020,000; -274,500;    0,000
360,941;50250,000; -279,500;    0,000
360,954;63146,500; -306,000;    0,000
360,966;63229,500;   17,500;    0,000
360,978;63146,500;  104,500;    0,000
360,990;63229,500; -216,500;    0,000
361,003;63146,500;  254,000;    0,000
361,015;63229,500;   83,000;    0,000
361,027;63146,500;  163,500;    0,000
361,039;63229,500; -101,000;    0,000
361,052;63146,500; -135,500;    0,000
361,064;63229,500;  -23,000;    0,000
361,076;63146,500;   33,000;    0,000
361,088;63229,500; -285,500;    0,000
361,100;63146,500; -388,500;    0,000
361,113;63229,500; -100,000;    0,000
361,125;63146,500; -434,500;    0,000
361,137;63229,500;  121,500;    0,000
361,149;63146,500;  -42,000;    0,000
361,162;63229,500;  -14,500;    0,000
361,174;63146,500; -248,000;    0,000
361,186;63229,500;  -15,500;    0,000
361,198;63146,500;  169,500;    0,000
361,210;63229,500; -176,500;    0,000
361,222;63146,500; -496,500;    0,000
361,235;63229,500;  211,000;    0,000
361,247;63146,500; -505,000;    0,000
361,259;63229,500; -468,500;    0,000
361,271;63146,500; -384,500;    0,000
361,283;63229,500; -289,500;    0,000
361,296;63146,500; -166,000;    0,000
361,308;63229,500; -369,000;    0,000
361,320;63146,500;  298,500;    0,000
361,332;63229,500;  -97,500;    0,000
361,344;63146,500;  -22,000;    0,000
361,356;63229,500; -543,000;    0,000
361,368;63146,500;   -1,500;    0,000
361,381;63229,500;  179,000;    0,000
361,393;63146,500;  191,000;    0,000
361,405;63229,500;   46,000;    0,000
361,417;63146,500;   60,000;    0,000
361,429;63229,500;    2,000;    0,000
361,441;63146,500; -266,500;    0,000
361,453;63229,500; -170,500;    0,000
361,466;63146,500; -351,000;    0,000
361,478;63229,500;  -96,500;    0,000
361,490;63146,500;  414,000;    0,000
361,502;63229,500; -320,500;    0,000
361,514;63146,500;  131,500;    0,000
361,526;63229,500; -111,000;    0,000
361,538;63146,500; -218,500;    0,000
361,550;63229,500;  226,500;    0,000
361,563;63146,500;  159,500;    0,000
361,575;63229,500;  -51,500;    0,000
361,587;63146,500;   92,000;    0,000
361,599;63229,500; -347,500;    0,000
361,611;63146,500; -751,000;    0,000
361,623;63229,500; -249,500;    0,000
361,635;63146,500; -183,000;    0,000
361,647;63229,500;   71,000;    0,000
361,659;63146,500;  -36,000;    0,000
361,671;63229,500;  -47,500;    0,000
361,683;63146,500;  -37,000;    0,000
361,695;63229,500; -273,000;    0,000
361,708;63146,500;  151,500;    0,000
361,720;63229,500; -175,500;    0,000
361,732;63146,500;  217,000;    0,000
361,744;63229,500; -172,000;    0,000
361,756;63146,500;  -39,500;    0,000
361,768;63229,500;   99,500;    0,000
361,780;63146,500;   35,000;    0,000
361,792;63229,500; -273,000;    0,000
361,804;63146,500;  -32,000;    0,000
361,816;63229,500; -284,000;    0,000
361,828;63146,500;  167,500;    0,000
361,840;63229,500;  138,000;    0,000
361,852;63146,500;   68,500;    0,000
361,864;63229,500;  -17,000;    0,000
361,876;63146,500; -430,500;    0,000
361,888;63229,500;   72,500;    0,000
361,900;63146,500;   12,500;    0,000
361,912;63229,500; -568,000;    0,000
361,924;63146,500;    5,500;    0,000
361,936;63229,500;  -43,500;    0,000
361,948;63146,500;   72,000;    0,000
361,960;63229,500; -249,000;    0,000
361,972;63146,500;  267,000;    0,000
361,984;63229,500; -133,500;    0,000
361,996;63146,500;  246,000;    0,000
362,008;63229,500;  161,500;    0,000
362,020;63146,500;   50,000;    0,000
362,032;63229,500;   63,500;    0,000
362,044;63146,500; -581,000;    0,000
362,056;63229,500; -190,500;    0,000
362,068;63146,500; -108,500;    0,000
362,080;63229,500; -321,000;    0,000
362,092;63146,500;    8,500;    0,000
362,104;63229,500; -136,000;    0,000
362,116;63146,500;   69,500;    0,000
362,128;63229,500;  132,500;    0,000
362,140;63146,500; -353,500;    0,000
362,152;63229,500;  414,000;    0,000
362,164;63146,500;  105,500;    0,000
362,176;63229,500; -240,500;    0,000
362,188;63146,500;  -26,000;    0,000
362,200;63229,500;  -19,000;    0,000
362,212;63146,500; -202,000;    0,000
362,224;45457,500;   23,500;    0,000
362,236;19411,500; -192,500;    0,000
362,248; 4192,000; -298,500;    0,000
362,260; 3740,500;   57,000;    0,000
362,272; 3370,000;  -23,500;    0,000
362,284; 3038,500;  -23,500;    0,000
362,295; 2918,500;   92,500;    0,000
362,307; 2526,000; -190,500;    0,000
362,319; 2646,500;  147,500;    0,000
362,331; 1947,000; -421,000;    0,000
362,343; 2155,500; -184,000;    0,000
362,355; 1998,000; -148,000;    0,000
362,367; 2105,500; -137,500;    0,000
362,379; 1537,000; -529,500;    0,000
362,391; 1724,000; -224,000;    0,000
362,403; 1914,500;  -84,500;    0,000
362,415; 1689,500; -106,500;    0,000
362,426; 1755,500;   75,000;    0,000
362,438; 1430,000; -256,000;    0,000
362,450; 1433,000; -276,000;    0,000
362,462; 1569,500;   21,500;    0,000
362,474; 1335,000; -147,500;    0,000
362,486; 1654,000;  164,500;    0,000
362,498;  970,000; -320,500;    0,000
362,510; 1493,000;  156,500;    0,000
362,522; 1350,000;   40,500;    0,000
362,533;  946,000; -474,000;    0,000
362,545; 1595,000;  270,000;    0,000
362,557; 1191,500; -172,500;    0,000
362,569;  975,500; -320,000;    0,000
362,581;  941,500; -230,000;    0,000
362,593;  900,000; -353,500;    0,000
362,605; 1531,000;  376,500;    0,000
362,616; 1335,000;  194,500;    0,000
362,628; 1144,000;   70,500;    0,000
362,640;  665,000; -486,500;    0,000
362,652; 1421,500;  200,000;    0,000
362,664;  967,500;  -26,000;    0,000
362,676;  947,000; -173,000;    0,000
362,687; 1298,000;  173,000;    0,000
362,699; 1086,000;  -21,500;    0,000
362,711;  702,000; -387,500;    0,000
362,723;  881,500; -113,500;    0,000
362,735;  496,500; -492,500;    0,000
362,747; 1054,500;   91,500;    0,000
362,758;  865,000; -133,000;    0,000
362,770; 1141,500;  213,000;    0,000
362,782;  799,500; -189,000;    0,000
362,794;  693,500; -145,500;    0,000
362,806;  618,500; -224,500;    0,000
362,817;  694,000; -241,000;    0,000
362,829;  354,000; -456,000;    0,000
362,841;  905,000;   54,000;    0,000
362,853;   49,000; -634,000;    0,000
362,865;  878,000;   11,500;    0,000
362,876;  442,000; -358,500;    0,000
362,888;  715,500;  -65,000;    0,000
362,900;  792,500;   63,000;    0,000
362,912;  547,000; -178,500;    0,000
362,923;  815,000;  -50,500;    0,000
362,935;  466,500; -291,500;    0,000
362,947;  165,000; -491,000;    0,000
362,959;  280,000; -436,500;    0,000
362,971;   26,500; -566,500;    0,000
362,982;  679,000;   -6,500;    0,000
362,994;  217,000; -410,000;    0,000
363,006;  401,000; -221,000;    0,000
363,018;  399,000; -247,500;    0,000
363,029;  624,500;  -50,500;    0,000
363,041;  625,500;  -56,500;    0,000
363,053;  629,000;  -69,500;    0,000
363,065;  153,500; -514,500;    0,000
363,076;  321,000; -230,000;    0,000
363,088;  739,000;  144,500;    0,000
363,100;  506,000; -150,500;    0,000
363,111;  836,500;  289,000;    0,000
363,123;  583,500;   15,500;    0,000
363,135;  307,500; -246,500;    0,000
363,147;  241,000; -363,000;    0,000
363,158;  376,000;  -67,500;    0,000
363,170;  504,500;  -34,000;    0,000
363,182;  660,000;   67,500;    0,000
363,193;  455,500;  -66,500;    0,000
363,205;  532,500; -130,500;    0,000
363,217;  387,500; -119,000;    0,000
363,229;   42,500; -357,000;    0,000
363,240;  -99,500; -502,500;    0,000
363,252;  168,500; -449,500;    0,000
363,264;  657,000;  102,500;    0,000
363,275;  757,500;  264,000;    0,000
363,287;  617,000;  120,500;    0,000
363,299;  425,000;  -39,500;    0,000
363,310;  546,500;   76,000;    0,000
363,322;  715,500;  277,000;    0,000
363,334;  244,000; -183,500;    0,000
363,345;  357,500; -129,000;    0,000
363,357;  428,000; -101,000;    0,000
363,369;  272,000; -219,000;    0,000
363,380;  185,000; -299,000;    0,000
363,392;  263,000; -186,000;    0,000
363,404;  217,000; -324,000;    0,000
363,415;  187,000; -227,000;    0,000
363,427;  378,500;  -16,500;    0,000
363,439;  553,500;   28,500;    0,000
363,450;  625,000;  164,000;    0,000
363,462;   24,500; -294,500;    0,000
363,474;  371,000;  -26,500;    0,000
363,485;   25,500; -371,500;    0,000
363,497;  285,500;  -84,000;    0,000
363,508;  103,500; -311,500;    0,000
363,520;  694,000;  165,500;    0,000
363,532;   53,500; -327,500;    0,000
363,543;  249,000; -213,000;    0,000
363,555;   12,500; -397,000;    0,000
363,566;  450,500;   96,000;    0,000
363,578;  331,000;  -79,500;    0,000
363,590;  442,500;   53,000;    0,000
363,601;  -86,500; -497,000;    0,000
363,613;  469,000;  136,000;    0,000
363,625;  238,500;  -94,500;    0,000
363,636;  172,000; -140,000;    0,000
363,648;  225,500; -111,000;    0,000
363,659;  456,500;  101,000;    0,000
363,671; -597,500; -918,000;    0,000
363,682;  260,000;  -74,500;    0,000
363,694;  350,000;  -34,500;    0,000
363,706;  182,500; -157,000;    0,000
363,717;  346,500;   35,000;    0,000
363,729;  259,000; -144,000;    0,000
363,740;  315,000;   -8,500;    0,000
363,752;  382,500;   55,500;    0,000
363,763;  -16,000; -304,000;    0,000
363,775;  737,000;  339,000;    0,000
363,787;  188,500; -121,500;    0,000
363,798; -121,000; -397,500;    0,000
363,810;  506,000;  161,500;    0,000
363,821;  470,500;  139,500;    0,000
363,833;   98,500; -205,500;    0,000
363,844;  173,500;  -92,000;    0,000
363,856;  147,500; -171,000;    0,000
363,867;  535,500;  248,500;    0,000
363,879;  362,500;  113,500;    0,000
363,890;  116,000; -175,000;    0,000
363,902; -260,000; -359,000;    0,000
363,913;  297,500;   15,500;    0,000
363,925; -342,000; -626,000;    0,000
363,937; -328,000; -560,500;    0,000
363,948;  282,000;   31,500;    0,000
363,960;  185,500; -155,000;    0,000
363,971; -100,000; -456,500;    0,000
363,983;  246,500; -117,500;    0,000
363,994;  354,000;   45,500;    0,000
364,006;  145,500; -156,500;    0,000
364,017;  403,500;  188,000;    0,000
364,029;    8,500; -149,500;    0,000
364,040;    6,500; -258,000;    0,000
364,052;  145,500; -168,500;    0,000
364,063;  458,500;  252,500;    0,000
364,075; -198,500; -530,000;    0,000
364,086; -175,000; -437,000;    0,000
364,097;  204,000;  -44,500;    0,000
364,109;  231,500;   -5,500;    0,000
364,120;   52,500;  -97,000;    0,000
364,132;   81,500; -196,500;    0,000
364,143;   62,000; -152,000;    0,000
364,155; -281,000; -483,500;    0,000
364,166;   24,500;  -92,000;    0,000
364,178;  248,500;   61,000;    0,000
364,189;   12,500; -320,500;    0,000
364,201; -349,000; -539,000;    0,000
364,212;   83,000; -235,000;    0,000
364,224;  -39,500; -406,000;    0,000
364,235;  351,000;    5,000;    0,000
364,246;  458,000;  195,500;    0,000
364,258;   63,000; -217,000;    0,000
364,269;  -36,500; -337,500;    0,000
364,281;  462,000;  260,000;    0,000
364,292;  163,500;  -79,500;    0,000
364,304;  243,500;  -48,500;    0,000
364,315;  132,500; -104,000;    0,000
364,326;   24,500; -100,000;    0,000
364,338;  201,000;   87,500;    0,000
364,349;  384,000;  195,000;    0,000
364,361;  -55,500; -170,500;    0,000
364,372;  270,000;    4,000;    0,000
364,383;   19,000; -142,000;    0,000
364,395;  134,000;  -49,500;    0,000
364,406;  275,000;   74,500;    0,000
364,418;   14,500; -184,500;    0,000
364,429; -170,000; -407,000;    0,000
364,440;  349,000;   80,000;    0,000
364,452; -167,000; -455,000;    0,000
364,463;  228,000;  -92,000;    0,000
364,475;  268,500;   51,500;    0,000
364,486;  353,500;   56,000;    0,000
364,497;   89,500; -227,500;    0,000
364,509; -124,000; -419,000;    0,000
364,520;  526,000;  321,500;    0,000
364,531;  171,500; -157,500;    0,000
364,543;  227,000;  -93,500;    0,000
364,554; -188,500; -567,000;    0,000
364,566;   -6,000; -194,000;    0,000
364,577; -157,500; -407,500;    0,000
364,588;  411,000;  309,000;    0,000
364,600;  105,000;  -73,000;    0,000
364,611; -303,500; -524,500;    0,000
364,622; -456,500; -686,500;    0,000
364,634;  292,500;  133,000;    0,000
364,645; -376,000; -548,000;    0,000
364,656; -106,500; -315,500;    0,000
364,668;  -56,000; -296,500;    0,000
364,679;   60,500; -179,500;    0,000
364,690;  548,500;  337,500;    0,000
364,702; -627,000; -774,500;    0,000
364,713;  586,500;  337,000;    0,000
364,724; -194,000; -381,500;    0,000
364,735;  -63,000; -221,000;    0,000
364,747; -311,000; -512,500;    0,000
364,758;  468,000;  271,500;    0,000
364,769;  177,000;  -63,500;    0,000
364,781;  303,500;   23,000;    0,000
364,792;  118,500;  -65,500;    0,000
364,803;   31,000; -239,500;    0,000
364,815;  429,000;  173,500;    0,000
364,826;  202,000;   47,000;    0,000
364,837; -105,000; -284,000;    0,000
364,848;  363,500;  207,000;    0,000
364,860;  152,500;   12,000;    0,000
364,871;  318,000;   -6,500;    0,000
364,882;   12,000; -214,000;    0,000
364,894;  529,000;   10,500;    0,000
364,905;  458,500;   27,000;    0,000
364,916;  466,000; -153,500;    0,000
364,927;  494,000; -190,500;    0,000
364,939;  690,500; -224,000;    0,000
364,950; 1483,500;  -39,000;    0,000
364,961; 2455,500; -152,500;    0,000
364,972; 2455,000;  -89,000;    0,000
364,984; 2597,500;  642,500;    0,000
364,995;  568,000; -173,500;    0,000
365,006;  690,500;  251,000;    0,000
365,017;  132,500; -160,500;    0,000
365,029;  -21,000; -224,500;    0,000
365,040;  159,000;  -77,000;    0,000
365,051;  220,500;    9,000;    0,000
365,062; -150,000; -350,500;    0,000
365,073;  216,000;  -21,500;    0,000
365,085;   77,500; -108,500;    0,000
365,096;    6,000; -170,500;    0,000
365,107;  446,000;  227,000;    0,000
365,118;  -71,500; -211,500;    0,000
365,130;  268,000;  -41,000;    0,000
365,141;  -24,000; -266,500;    0,000
365,152;  239,000;   72,500;    0,000
365,163; -213,500; -349,500;    0,000
365,174;   49,500; -167,000;    0,000
365,186;  145,500;  -75,000;    0,000
365,197;  -61,000; -221,500;    0,000
365,208;  -91,000; -239,000;    0,000
365,219;   28,000; -135,000;    0,000
365,230;   53,500; -137,500;    0,000
365,241;  -44,000; -184,000;    0,000
365,253; -329,000; -484,000;    0,000
365,264;   23,500; -152,000;    0,000
365,275;  -54,500; -248,000;    0,000
365,286;   92,000;  -50,000;    0,000
365,297; -286,500; -382,500;    0,000
365,308; -220,500; -459,000;    0,000
365,320; -179,500; -312,500;    0,000
365,331; -222,500; -388,500;    0,000
365,342;  106,500;   24,000;    0,000
365,353; -154,500; -228,500;    0,000
365,364; -189,500; -365,000;    0,000
365,375; -169,500; -278,500;    0,000
365,386;  397,500;  236,500;    0,000
365,398;  243,000;  111,000;    0,000
365,409;  246,000;  -17,500;    0,000
365,420;   63,000; -111,500;    0,000
365,431;  -33,000; -185,500;    0,000
365,442;   22,000; -147,000;    0,000
365,453;  273,000;   12,000;    0,000
365,464; -199,000; -406,000;    0,000
365,476;  215,000;   -1,000;    0,000
365,487;  -43,500; -173,000;    0,000
365,498; -237,500; -429,000;    0,000
365,509;   94,500;  -20,500;    0,000
365,520;   93,000; -134,000;    0,000
365,531;   62,500;  -48,000;    0,000
365,542;  315,500;   78,500;    0,000
365,553;  132,500;  105,000;    0,000
365,564;  -27,000; -248,500;    0,000
365,575; -325,500; -560,000;    0,000
365,587;  156,500;   91,000;    0,000
365,598; -134,500; -308,000;    0,000
365,609;   28,500; -159,500;    0,000
365,620;  218,500;   73,500;    0,000
365,631; -134,500; -247,000;    0,000
365,642;  -12,000; -146,000;    0,000
365,653;  119,000;  -70,000;    0,000
365,664;   54,000; -146,000;    0,000
365,675;  475,500;  260,500;    0,000
365,686; -351,500; -511,500;    0,000
365,697; -105,500; -196,500;    0,000
365,708; -133,500; -263,500;    0,000
365,719;  371,500;  246,000;    0,000
365,730;  286,000;   91,000;    0,000
365,741;   -8,000; -231,000;    0,000
365,752;  193,000;  -36,500;    0,000
365,763;  133,000;   51,000;    0,000
365,775;   16,500; -101,000;    0,000
365,786;  456,500;  308,000;    0,000
365,797; -356,000; -467,000;    0,000
365,808;  311,000;  127,500;    0,000
365,819; -254,500; -377,500;    0,000
365,830;  331,500;  198,000;    0,000
365,841;  303,000;  259,500;    0,000
365,852;   99,500; -153,500;    0,000
365,863; -375,500; -484,500;    0,000
365,874;  137,500;   21,000;    0,000
365,885; -197,000; -254,500;    0,000
365,896;   13,000; -125,500;    0,000
365,907; -172,000; -259,000;    0,000
365,918;  -16,000;  -86,500;    0,000
365,929;  245,000;   -0,500;    0,000
365,940;   70,000; -102,500;    0,000
365,951;   73,500;  -85,000;    0,000
365,962; -157,500; -305,500;    0,000
365,973;  -41,000; -130,500;    0,000
365,984;  269,000;  118,500;    0,000
365,995;  -19,000; -152,500;    0,000
366,006;  356,500;  168,000;    0,000
366,017;   43,000; -110,000;    0,000
366,028;  403,000;   72,500;    0,000
366,038; -444,500; -530,000;    0,000
366,049;  -67,000; -236,500;    0,000
366,060; -192,500; -270,500;    0,000
366,071;  418,000;  235,000;    0,000
366,082; -235,500; -326,000;    0,000
366,093;  177,500;   77,000;    0,000
366,104; -242,500; -325,500;    0,000
366,115; -189,000; -237,500;    0,000
366,126; -292,000; -398,000;    0,000
366,137; -138,000; -293,000;    0,000
366,148; -305,000; -426,000;    0,000
366,159;   81,500;  -58,000;    0,000
366,170;  243,500;   85,000;    0,000
366,181;  297,500;  236,500;    0,000
366,192;   59,000;  -78,500;    0,000
366,203;  109,000;  -10,000;    0,000
366,213;  715,500;  483,000;    0,000
366,224; -217,000; -291,500;    0,000
366,235; -126,000; -161,000;    0,000
366,246; -246,000; -321,500;    0,000
366,257;   29,500; -103,500;    0,000
366,268;  207,500;   84,000;    0,000
366,279;  223,500;   88,000;    0,000
366,290;  279,500;  107,500;    0,000
366,301;  -27,000; -107,000;    0,000
366,312;  -26,000;  -55,000;    0,000
366,322;  173,000;  125,500;    0,000
366,333;   41,500; -146,500;    0,000
366,344; -103,000; -215,500;    0,000
366,355;  100,000;   -5,500;    0,000
366,366;  105,000;   15,000;    0,000
366,377; -286,000; -460,500;    0,000
366,388;  100,500;   -1,500;    0,000
366,399;  -95,000; -218,000;    0,000
366,409;  182,000;   -4,000;    0,000
366,420;   25,000; -105,500;    0,000
366,431;  287,000;  227,500;    0,000
366,442; -180,000; -305,000;    0,000
366,453;  252,500;  140,500;    0,000
366,464; -213,500; -376,000;    0,000
366,475; -470,500; -605,000;    0,000
366,485;  160,000;   50,500;    0,000
366,496;  237,000;  137,000;    0,000
366,507; -174,000; -379,000;    0,000
366,518;  197,000;  119,500;    0,000
366,529;  205,500;   99,000;    0,000
366,540; -484,000; -543,000;    0,000
366,550; -360,000; -567,000;    0,000
366,561;   50,000;   -2,000;    0,000
366,572; -252,000; -365,500;    0,000
366,583;  497,500;  330,500;    0,000
366,594;  103,500;   76,000;    0,000
366,604;  -59,000; -119,500;    0,000
366,615;  571,500;  360,000;    0,000
366,626;  282,000;   88,000;    0,000
366,637;  254,500;   87,000;    0,000
366,648;  159,500;   25,500;    0,000
366,658;  156,000;   25,000;    0,000
366,669;  195,500;   52,500;    0,000
366,680;   31,500;   21,000;    0,000
366,691;   87,000;   25,000;    0,000
366,702; -265,000; -461,500;    0,000
366,712;  193,000;   94,000;    0,000
366,723;  165,000;   92,000;    0,000
366,734;  112,000;   25,000;    0,000
366,745;  476,000;  350,000;    0,000
366,755;  103,500;   67,000;    0,000
366,766;  -22,000;  -88,000;    0,000
366,777; -191,500; -194,000;    0,000
366,788; -136,500; -253,500;    0,000
366,799;  362,000;  173,000;    0,000
366,809;  504,500;  356,500;    0,000
366,820; -389,000; -460,500;    0,000
366,831;  325,000;  174,000;    0,000
366,842; -282,500; -326,000;    0,000
366,852;  113,500;  -14,500;    0,000
366,863; -298,000; -350,000;    0,000
366,874;  113,000;  -11,500;    0,000
366,884; -569,500; -549,500;    0,000
366,895;  117,500;    1,000;    0,000
366,906; -222,500; -285,500;    0,000
366,917;  147,500;   19,500;    0,000
366,927;  621,500;  514,000;    0,000
366,938;   14,000; -178,000;    0,000
366,949;  -34,000; -151,000;    0,000
366,959;  259,500;  103,000;    0,000
366,970; -231,500; -350,500;    0,000
366,981; -580,500; -656,000;    0,000
366,992; -328,000; -433,000;    0,000
367,002;  195,500;   -9,000;    0,000
367,013;   56,000;  -70,000;    0,000
367,024;  145,500;   -4,500;    0,000
367,034;  298,500;  151,000;    0,000
367,045;    5,500; -119,500;    0,000
367,056;  -95,000; -223,000;    0,000
367,066;  166,500; -139,000;    0,000
367,077;  -48,500; -257,500;    0,000
367,088;   84,000;  -69,000;    0,000
367,098; -503,500; -612,000;    0,000
367,109;  -27,000; -251,500;    0,000
367,120;  143,500;   39,000;    0,000
367,130;   60,000;  -61,000;    0,000
367,141; -166,000; -274,000;    0,000
367,152; -161,500; -303,000;    0,000
367,162; -181,500; -211,000;    0,000
367,173;  -14,000; -171,500;    0,000
367,184;  -74,000; -130,500;    0,000
367,194;  163,500;  113,000;    0,000
367,205;  -25,000;  -66,500;    0,000
367,216;  229,000;  105,000;    0,000
367,226;  149,000;  110,000;    0,000
367,237;  296,500;  105,500;    0,000
367,248; -486,000; -582,000;    0,000
367,258; -271,000; -347,500;    0,000
367,269;  307,500;  182,000;    0,000
367,279; -131,000; -233,500;    0,000
367,290; -121,000; -201,500;    0,000
367,301; -208,500; -412,000;    0,000
367,311; -137,500; -252,000;    0,000
367,322;   24,500; -192,000;    0,000
367,332;  -99,500; -157,000;    0,000
367,343; -140,000; -396,000;    0,000
367,354; -444,000; -496,000;    0,000
367,364;  304,000;  183,000;    0,000
367,375;   37,500;  -63,500;    0,000
367,385; -375,500; -444,000;    0,000
367,396;   94,000;   50,000;    0,000
367,407; -224,500; -271,500;    0,000
367,417; -545,000; -641,500;    0,000
367,428;  154,500;   68,000;    0,000
367,438;  -91,500; -104,000;    0,000
367,449;   86,500;  -30,500;    0,000
367,459;   10,000; -105,000;    0,000
367,470; -163,000; -245,000;    0,000
367,481;  -97,500; -161,000;    0,000
367,491;   40,500;  -72,500;    0,000
367,502;   93,500;   63,500;    0,000
367,512;   54,500; -107,500;    0,000
367,523;  372,500;  390,000;    0,000
367,533; -164,500; -282,000;    0,000
367,544;  365,000;  280,500;    0,000
367,554;   90,000;  -22,500;    0,000
367,565;  277,500;  155,000;    0,000
367,576; -101,000; -186,000;    0,000
367,586;  474,000;  432,000;    0,000
367,597;  216,000;  148,000;    0,000
367,607; -267,000; -311,500;    0,000
367,618;  -91,000; -252,000;    0,000
367,628; -124,500; -201,000;    0,000
367,639;  259,500;  158,000;    0,000
367,649; -249,000; -327,500;    0,000
367,660;  143,000;   34,000;    0,000
367,670;  -36,500; -134,500;    0,000
367,681; -290,000; -414,000;    0,000
367,691; -290,000; -349,000;    0,000
367,702;   59,000;  -25,000;    0,000
367,712;  -37,500; -182,500;    0,000
367,723;  116,000;  102,500;    0,000
367,733; -237,000; -276,500;    0,000
367,744;  -74,500; -215,500;    0,000
367,754;  152,500;   43,500;    0,000
367,765;  553,500;  415,500;    0,000
367,775;  207,000;  148,000;    0,000
367,786;  151,000;  103,500;    0,000
367,796;   82,500;    9,000;    0,000
367,807;  299,500;  220,500;    0,000
367,817; -349,500; -490,500;    0,000
367,827;  299,000;  195,000;    0,000
367,838; -339,500; -305,500;    0,000
367,848;  -83,500; -134,000;    0,000
367,859;   62,000;  -21,000;    0,000
367,869;  171,000;   72,500;    0,000
367,880; -151,500; -190,500;    0,000
367,890; -206,000; -233,000;    0,000
367,901; -263,500; -376,500;    0,000
367,911;  146,500;   81,500;    0,000
367,921; -535,500; -623,000;    0,000
367,932;  306,000;  186,500;    0,000
367,942; -313,000; -473,500;    0,000
367,953; -147,500; -218,500;    0,000
367,963;  200,500;  164,500;    0,000
367,974;  518,500;  557,000;    0,000
367,984;   91,000;   23,000;    0,000
367,994;  108,000;   25,000;    0,000
368,005;  103,000;   32,500;    0,000
368,015;  571,000;  504,000;    0,000
368,026;  151,500;   91,500;    0,000
368,036;  283,000;  114,500;    0,000
368,046;  -23,000; -122,000;    0,000
368,057;  -73,000; -178,000;    0,000
368,067; -118,500; -152,000;    0,000
368,078; -376,500; -441,500;    0,000
368,088;  309,500;  224,000;    0,000
368,098; -138,000; -176,000;    0,000
368,109; -129,500; -187,500;    0,000
368,119;  185,500;  112,000;    0,000
368,130; -368,000; -412,000;    0,000
368,140;  -90,500; -216,000;    0,000
368,150;  -47,000; -146,000;    0,000
368,161;   68,000;  -29,000;    0,000
368,171;  -45,000;  -93,000;    0,000
368,181;   91,500;   27,500;    0,000
368,192; -114,000; -180,000;    0,000
368,202;   52,000; -116,500;    0,000
368,212;   38,000;  -17,500;    0,000
368,223; -403,000; -483,500;    0,000
368,233;  -11,000;  -76,500;    0,000
368,243; -240,500; -275,000;    0,000
368,254;  191,000;   69,500;    0,000
368,264; -133,500; -243,000;    0,000
368,274;  -54,500; -134,000;    0,000
368,285;  219,000;  184,500;    0,000
368,295;  128,000;  156,500;    0,000
368,305;  -93,000; -149,500;    0,000
368,316;  412,000;  264,000;    0,000
368,326;  212,000;   98,000;    0,000
368,336;  265,500;  130,000;    0,000
368,347;  427,500;  330,000;    0,000
368,357; -184,500; -274,000;    0,000
368,367;  -85,500; -207,500;    0,000
368,378;  124,000;   60,000;    0,000
368,388; -255,500; -349,000;    0,000
368,398; -230,000; -287,000;    0,000
368,409;   39,000;  -95,500;    0,000
368,419;  -70,500; -181,000;    0,000
368,429;  370,500;  290,500;    0,000
368,439; -329,000; -432,000;    0,000
368,450;  256,500;  204,500;    0,000
368,460; -122,500; -129,000;    0,000
368,470;  418,000;  367,500;    0,000
368,480;  246,500;  265,000;    0,000
368,491;  -23,000; -146,500;    0,000
368,501; -131,500; -157,000;    0,000
368,511;  382,500;  267,000;    0,000
368,522;   31,000;  -63,500;    0,000
368,532;  198,000;  170,500;    0,000
368,542;   -4,500; -204,500;    0,000
368,552; -156,500; -307,500;    0,000
368,563; -246,000; -329,500;    0,000
368,573; -164,000; -282,000;    0,000
368,583;  -12,000;  -80,000;    0,000
368,593;  122,500;   80,500;    0,000
368,604;  -11,000; -104,000;    0,000
368,614;   50,500;  -41,000;    0,000
368,624; -368,000; -438,500;    0,000
368,634;  112,500;   41,500;    0,000
368,644;   -2,500;  -94,000;    0,000
368,655;   21,000;  -24,500;    0,000
368,665;  198,500;  103,500;    0,000
368,675;   88,500;   11,500;    0,000
368,685; -188,500; -147,500;    0,000
368,696;   62,500;   62,500;    0,000
368,706; -181,500; -272,500;    0,000
368,716;  -99,000; -212,500;    0,000
368,726; -427,000; -573,500;    0,000
368,736; -152,500; -298,000;    0,000
368,747; -294,500; -310,000;    0,000
368,757;   78,000;   -6,500;    0,000
368,767; -558,500; -597,500;    0,000
368,777;  -29,000; -113,000;    0,000
368,787; -218,500; -232,000;    0,000
368,797;  136,000;  130,500;    0,000
368,808; -537,000; -588,500;    0,000
368,818;  141,000;  122,000;    0,000
368,828;   91,500;   64,000;    0,000
368,838; -331,000; -471,000;    0,000
368,848;  160,000;   89,000;    0,000
368,858;  -72,000; -181,500;    0,000
368,869;  425,500;  369,000;    0,000
368,879;   56,500;  -75,000;    0,000
368,889;   92,500;   14,000;    0,000
368,899;   20,500;   16,500;    0,000
368,909;  140,000;   44,000;    0,000
368,919;  153,500;  111,000;    0,000
368,929;    8,500;  -24,000;    0,000
368,940;  319,000;  195,000;    0,000
368,950; -179,000; -265,000;    0,000
368,960; -621,500; -754,500;    0,000
368,970; -351,000; -385,500;    0,000
368,980;  409,500;  270,000;    0,000
368,990; -457,500; -509,500;    0,000
369,000; -378,000; -415,000;    0,000
369,010;  110,000;  -26,500;    0,000
369,021;   83,000;  -29,000;    0,000
369,031;   -7,500;  -10,500;    0,000
369,041; -284,000; -378,000;    0,000
369,051; -177,000; -209,500;    0,000
369,061; -102,500; -212,500;    0,000
369,071;   88,500;  -41,000;    0,000
369,081; -318,000; -375,500;    0,000
369,091; -198,000; -252,000;    0,000
369,101; -147,000; -170,000;    0,000
369,111;   10,000;  -41,500;    0,000
369,122; -111,500; -147,500;    0,000
369,132;  -42,000;  -65,000;    0,000
369,142;  218,500;  243,000;    0,000
369,152; -435,500; -351,500;    0,000
369,162; -432,500; -489,000;    0,000
369,172;  134,000;  152,000;    0,000
369,182;  241,500;  127,500;    0,000
369,192;  163,500;   99,500;    0,000
369,202;  326,000;  295,000;    0,000
369,212; -381,500; -436,000;    0,000
369,222; -278,500; -246,500;    0,000
369,232; -238,000; -257,500;    0,000
369,242; -532,000; -621,500;    0,000
369,252; -316,000; -341,500;    0,000
369,262; -124,500; -152,500;    0,000
369,272;    5,500;  -63,500;    0,000
369,282;  -37,500;  -26,000;    0,000
369,292;  -81,000;   -5,000;    0,000
369,302; -271,500; -398,000;    0,000
369,312;  467,000;  359,500;    0,000
369,322;  347,000;  259,000;    0,000
369,332;    0,500; -156,000;    0,000
369,342;   -6,000;  -95,500;    0,000
369,353; -138,500; -201,000;    0,000
369,363; -395,000; -554,500;    0,000
369,373; -353,500; -387,000;    0,000
369,383;  141,000;  146,000;    0,000
369,393;  228,000;  217,000;    0,000
369,403;   12,500;  -60,000;    0,000
369,413; -425,500; -404,500;    0,000
369,422;  182,500;   57,000;    0,000
369,432;  339,500;  294,500;    0,000
369,442; -224,500; -306,000;    0,000
369,452;  -65,500; -112,500;    0,000
369,462; -200,000; -278,500;    0,000
369,472;   30,000;  -61,000;    0,000
369,482;  458,000;  418,000;    0,000
369,492; -176,000; -309,000;    0,000
369,502;  103,000;  -29,500;    0,000
369,512; -446,000; -473,500;    0,000
369,522;   88,500;   42,500;    0,000
369,532; -171,000; -270,500;    0,000
369,542; -114,500;  -92,000;    0,000
369,552;   70,500;   44,000;    0,000
369,562; -104,500; -209,000;    0,000
369,572; -230,000; -276,000;    0,000
369,582; -106,000; -222,500;    0,000
369,592;   73,000;  -29,500;    0,000
369,602; -133,000; -193,000;    0,000
369,612; -397,500; -404,500;    0,000
369,622;    5,500;  -65,000;    0,000
369,632; -335,000; -377,500;    0,000
369,641;   52,000; -100,000;    0,000
369,651; -332,500; -484,500;    0,000
369,661; -235,500; -318,500;    0,000
369,671; -385,500; -576,500;    0,000
369,681;  703,000;  641,000;    0,000
369,691;  215,000;  109,000;    0,000
369,701;  301,000;  154,500;    0,000
369,711;  104,500;  -20,500;    0,000
369,721; -124,500; -286,500;    0,000
369,731; -141,500; -156,500;    0,000
369,741; -126,000; -305,500;    0,000
369,750;   93,500;   33,000;    0,000
369,760; -396,000; -480,500;    0,000
369,770;  118,500;   62,500;    0,000
369,780; -282,000; -273,500;    0,000
369,790;  383,000;  300,000;    0,000
369,800;  511,000;  487,500;    0,000
369,810;  433,000;  415,500;    0,000
369,820;  -13,500;    1,000;    0,000
369,829;  201,000;  183,000;    0,000
369,839;  -90,000; -164,500;    0,000
369,849;  170,500;  171,500;    0,000
369,859;  248,000;  131,500;    0,000
369,869;  -75,500; -251,500;    0,000
369,879;  -28,000; -120,000;    0,000
369,889;  187,000;   27,500;    0,000
369,898; -204,000; -231,500;    0,000
369,908; -367,000; -369,500;    0,000
369,918;  227,000;   89,000;    0,000
369,928;  121,000;  134,500;    0,000
369,938;  -62,000; -183,500;    0,000
369,948;  -35,000;  -70,000;    0,000
369,957;  163,000;   31,000;    0,000
369,967;  -13,500;  -49,500;    0,000
369,977;  -27,000;  -36,000;    0,000
369,987;  125,000;  129,000;    0,000
369,997;  123,000;  113,500;    0,000
370,006; -136,500; -317,500;    0,000
370,016;  271,000;  202,000;    0,000
370,026; -144,500; -268,000;    0,000
370,036; -244,000; -207,000;    0,000
370,046;  257,500;  175,500;    0,000
370,055;  -55,500;  -96,000;    0,000
370,065; -285,500; -393,500;    0,000
370,075;  -45,500; -164,500;    0,000
370,085; -264,000; -378,000;    0,000
370,095;  -15,000;  -55,500;    0,000
370,104;  -48,500; -130,000;    0,000
370,114;  357,000;  252,000;    0,000
370,124;  346,500;  355,500;    0,000
370,134; -154,500; -117,500;    0,000
370,143; -441,500; -516,000;    0,000
370,153; -104,500;  -99,000;    0,000
370,163; -454,500; -453,000;    0,000
370,173; -558,500; -636,500;    0,000
370,182;  374,000;  252,000;    0,000
370,192; -348,500; -404,000;    0,000
370,202;   39,500; -106,000;    0,000
370,212;  188,000;    5,000;    0,000
370,221; -150,000; -267,500;    0,000
370,231;  -13,500; -179,000;    0,000
370,241;  254,000;  166,500;    0,000
370,251;  118,000;    8,500;    0,000
370,260;  215,000;  194,500;    0,000
370,270; -171,500; -294,000;    0,000
370,280;   74,000;  -23,500;    0,000
370,290;  156,500;  151,000;    0,000
370,299; -314,000; -392,000;    0,000
370,309; -144,000; -237,000;    0,000
370,319;    1,500;  -40,500;    0,000
370,328;  -71,500; -170,000;    0,000
370,338; -170,000; -236,000;    0,000
370,348;  215,500;  126,500;    0,000
370,357;  256,000;  206,000;    0,000
370,367;  390,500;  243,500;    0,000
370,377; -481,500; -531,500;    0,000
370,387;  106,500;  -28,500;    0,000
370,396;  434,000;  271,000;    0,000
370,406;  335,500;  195,000;    0,000
370,416; -139,500; -107,500;    0,000
370,425;  414,500;  367,000;    0,000
370,435;  217,000;  209,500;    0,000
370,445; -133,500; -257,000;    0,000
370,454; -253,500; -312,500;    0,000
370,464;   75,500;  -81,000;    0,000
370,474;  440,000;  335,500;    0,000
370,483;  263,000;  173,500;    0,000
370,493;  -55,500;  -87,000;    0,000
370,503;   49,000;  -51,500;    0,000
370,512;  -76,000;  -52,000;    0,000
370,522;   33,500;  -19,500;    0,000
370,531; -292,500; -360,500;    0,000
370,541;  347,000;  246,000;    0,000
370,551;  229,500;  211,000;    0,000
370,560;  -36,500; -158,000;    0,000
370,570;  118,000;  -34,000;    0,000
370,580;  -95,000; -179,500;    0,000
370,589;  -82,500; -163,000;    0,000
370,599; -540,000; -586,500;    0,000
370,609; -218,000; -206,500;    0,000
370,618;  -57,500; -158,500;    0,000
370,628;  422,500;  354,000;    0,000
370,637;  -30,000;  -70,000;    0,000
370,647; -375,000; -387,500;    0,000
370,657;  349,500;  252,500;    0,000
370,666;  278,500;  216,500;    0,000
370,676; -375,000; -512,500;    0,000
370,685; -406,000; -400,500;    0,000
370,695; -104,000; -259,000;    0,000
370,705;  -96,500; -138,000;    0,000
370,714;  -65,500; -166,000;    0,000
370,724; -329,500; -336,500;    0,000
370,733;  130,500;  146,500;    0,000
370,743; -395,000; -539,000;    0,000
370,752;  -85,500; -218,000;    0,000
370,762; -225,500; -280,500;    0,000
370,772; -262,500; -235,500;    0,000
370,781; -481,500; -510,000;    0,000
370,791;  138,000;   65,500;    0,000
370,800; -147,500; -145,000;    0,000
370,810; -379,500; -513,500;    0,000
370,819;  -16,500;  -33,000;    0,000
370,829; -221,500; -284,500;    0,000
370,838; -472,000; -477,500;    0,000
370,848; -421,500; -467,500;    0,000
370,857; -247,000; -257,000;    0,000
370,867; -161,500; -266,500;    0,000
370,877;   81,000;  -14,500;    0,000
370,886;   44,500;   16,000;    0,000
370,896;  140,000;  136,000;    0,000
370,905; -116,000; -163,500;    0,000
370,915;  154,000;  121,500;    0,000
370,924;  377,000;  438,500;    0,000
370,934;    5,000;   -0,500;    0,000
370,943;  -13,500;  -71,500;    0,000
370,953;  167,000;  165,000;    0,000
370,962; -318,500; -412,500;    0,000
370,972; -245,500; -328,000;    0,000
370,981;   50,000;  -24,500;    0,000
370,991;  102,500;   24,000;    0,000
371,000;  -40,000;  -90,000;    0,000
371,010; -146,500; -128,500;    0,000
371,019; -462,500; -520,500;    0,000
371,029; -405,000; -471,500;    0,000
371,038;  161,500;   80,500;    0,000
371,048;  173,000;  166,000;    0,000
371,057;  120,500;  113,500;    0,000
371,067; -288,000; -303,500;    0,000
371,076;  366,000;  279,000;    0,000
371,085;   14,000;   44,000;    0,000
371,095;  -13,000;   -7,000;    0,000
371,104;   -1,000;  -35,500;    0,000
371,114;  181,500;  131,000;    0,000
371,123; -283,000; -277,500;    0,000
371,133;  -42,500; -136,500;    0,000
371,142; -138,500;  -92,000;    0,000
371,152; -291,000; -399,000;    0,000
371,161;  -44,500; -125,500;    0,000
371,170; -226,000; -321,000;    0,000
371,180; -461,500; -532,500;    0,000
371,189;   41,500; -100,500;    0,000
371,199; -142,500; -159,500;    0,000
371,208; -228,000; -176,000;    0,000
371,218;  -41,000; -136,000;    0,000
371,227;  196,500;  104,500;    0,000
371,236; -253,500; -375,500;    0,000
371,246;   17,500;   -2,000;    0,000
371,255;  -10,000;   13,500;    0,000
371,265;  -35,000; -130,000;    0,000
371,274; -189,000; -238,000;    0,000

